Index	trial_id	trial_type	trial_code	SM_velocity	OM_velocity	Condition_name	onset	duration	ITI_duration	StartTime	ChangeTime	Response	ResponseTime	Valid
1	trial_id	trial_type	trial_code	SM_velocity	OM_velocity	Condition_name	onset	duration	ITI_duration	5.405979	0	0	0	False
2	trial_id	trial_type	trial_code	SM_velocity	OM_velocity	Condition_name	onset	duration	ITI_duration	9.310931	0	4	9.699759	True

Index	trial_id	trial_type	trial_code	SM_velocity	OM_velocity	Condition_name	onset	duration	ITI_duration	StartTime	ChangeTime	Response	ResponseTime	Valid
1	trial_id	trial_type	trial_code	SM_velocity	OM_velocity	Condition_name	onset	duration	ITI_duration	3.232989	0	0	0	False
2	trial_id	trial_type	trial_code	SM_velocity	OM_velocity	Condition_name	onset	duration	ITI_duration	7.130463	0	0	0	False
3	trial_id	trial_type	trial_code	SM_velocity	OM_velocity	Condition_name	onset	duration	ITI_duration	13.64959	0	0	0	False
4	trial_id	trial_type	trial_code	SM_velocity	OM_velocity	Condition_name	onset	duration	ITI_duration	20.82574	0	0	0	False
5	trial_id	trial_type	trial_code	SM_velocity	OM_velocity	Condition_name	onset	duration	ITI_duration	25.61833	0	0	0	False
6	trial_id	trial_type	trial_code	SM_velocity	OM_velocity	Condition_name	onset	duration	ITI_duration	33.9177	0	0	0	False
7	trial_id	trial_type	trial_code	SM_velocity	OM_velocity	Condition_name	onset	duration	ITI_duration	38.70893	0	0	0	False
8	trial_id	trial_type	trial_code	SM_velocity	OM_velocity	Condition_name	onset	duration	ITI_duration	47.02296	0	0	0	False
9	trial_id	trial_type	trial_code	SM_velocity	OM_velocity	Condition_name	onset	duration	ITI_duration	52.0564	0	0	0	False
10	trial_id	trial_type	trial_code	SM_velocity	OM_velocity	Condition_name	onset	duration	ITI_duration	56.63325	0	0	0	False
11	trial_id	trial_type	trial_code	SM_velocity	OM_velocity	Condition_name	onset	duration	ITI_duration	60.92935	0	0	0	False
12	trial_id	trial_type	trial_code	SM_velocity	OM_velocity	Condition_name	onset	duration	ITI_duration	68.33781	0	0	0	False
13	trial_id	trial_type	trial_code	SM_velocity	OM_velocity	Condition_name	onset	duration	ITI_duration	71.99463	0	0	0	False
14	trial_id	trial_type	trial_code	SM_velocity	OM_velocity	Condition_name	onset	duration	ITI_duration	78.80173	0	0	0	False
15	trial_id	trial_type	trial_code	SM_velocity	OM_velocity	Condition_name	onset	duration	ITI_duration	82.88598	0	0	0	False
16	trial_id	trial_type	trial_code	SM_velocity	OM_velocity	Condition_name	onset	duration	ITI_duration	90.29417	0	0	0	False
17	trial_id	trial_type	trial_code	SM_velocity	OM_velocity	Condition_name	onset	duration	ITI_duration	97.05379	0	0	0	False
18	trial_id	trial_type	trial_code	SM_velocity	OM_velocity	Condition_name	onset	duration	ITI_duration	103.0541	0	0	0	False
19	trial_id	trial_type	trial_code	SM_velocity	OM_velocity	Condition_name	onset	duration	ITI_duration	109.2617	0	0	0	False
20	trial_id	trial_type	trial_code	SM_velocity	OM_velocity	Condition_name	onset	duration	ITI_duration	115.6941	0	0	0	False
21	trial_id	trial_type	trial_code	SM_velocity	OM_velocity	Condition_name	onset	duration	ITI_duration	119.3101	0	0	0	False
22	trial_id	trial_type	trial_code	SM_velocity	OM_velocity	Condition_name	onset	duration	ITI_duration	127.132	0	0	0	False
23	trial_id	trial_type	trial_code	SM_velocity	OM_velocity	Condition_name	onset	duration	ITI_duration	133.1509	0	0	0	False
24	trial_id	trial_type	trial_code	SM_velocity	OM_velocity	Condition_name	onset	duration	ITI_duration	137.2428	0	0	0	False
25	trial_id	trial_type	trial_code	SM_velocity	OM_velocity	Condition_name	onset	duration	ITI_duration	145.3472	0	0	0	False
26	trial_id	trial_type	trial_code	SM_velocity	OM_velocity	Condition_name	onset	duration	ITI_duration	149.675	0	0	0	False

Index	trial_id	trial_type	trial_code	SM_velocity	OM_velocity	Condition_name	onset	duration	ITI_duration	StartTime	ChangeTime	Response	ResponseTime	Valid
1	trial_id	trial_type	trial_code	SM_velocity	OM_velocity	Condition_name	onset	duration	ITI_duration	2.795213	0	0	0	False
2	trial_id	trial_type	trial_code	SM_velocity	OM_velocity	Condition_name	onset	duration	ITI_duration	6.761142	0	0	0	False
3	trial_id	trial_type	trial_code	SM_velocity	OM_velocity	Condition_name	onset	duration	ITI_duration	13.31061	0	0	0	False
4	trial_id	trial_type	trial_code	SM_velocity	OM_velocity	Condition_name	onset	duration	ITI_duration	20.5303	0	0	0	False
5	trial_id	trial_type	trial_code	SM_velocity	OM_velocity	Condition_name	onset	duration	ITI_duration	25.3717	0	0	0	False
6	trial_id	trial_type	trial_code	SM_velocity	OM_velocity	Condition_name	onset	duration	ITI_duration	33.71468	0	0	0	False
7	trial_id	trial_type	trial_code	SM_velocity	OM_velocity	Condition_name	onset	duration	ITI_duration	38.5742	0	0	0	False
8	trial_id	trial_type	trial_code	SM_velocity	OM_velocity	Condition_name	onset	duration	ITI_duration	46.90215	0	0	0	False
9	trial_id	trial_type	trial_code	SM_velocity	OM_velocity	Condition_name	onset	duration	ITI_duration	52.01462	0	0	0	False
10	trial_id	trial_type	trial_code	SM_velocity	OM_velocity	Condition_name	onset	duration	ITI_duration	56.71764	0	0	0	False
11	trial_id	trial_type	trial_code	SM_velocity	OM_velocity	Condition_name	onset	duration	ITI_duration	61.12207	0	0	0	False
12	trial_id	trial_type	trial_code	SM_velocity	OM_velocity	Condition_name	onset	duration	ITI_duration	68.58905	0	0	0	False
13	trial_id	trial_type	trial_code	SM_velocity	OM_velocity	Condition_name	onset	duration	ITI_duration	72.36422	0	0	0	False
14	trial_id	trial_type	trial_code	SM_velocity	OM_velocity	Condition_name	onset	duration	ITI_duration	79.19746	0	0	0	False
15	trial_id	trial_type	trial_code	SM_velocity	OM_velocity	Condition_name	onset	duration	ITI_duration	83.35667	0	0	0	False
16	trial_id	trial_type	trial_code	SM_velocity	OM_velocity	Condition_name	onset	duration	ITI_duration	90.82134	0	0	0	False
17	trial_id	trial_type	trial_code	SM_velocity	OM_velocity	Condition_name	onset	duration	ITI_duration	97.58584	0	0	0	False
18	trial_id	trial_type	trial_code	SM_velocity	OM_velocity	Condition_name	onset	duration	ITI_duration	103.654	0	0	0	False
19	trial_id	trial_type	trial_code	SM_velocity	OM_velocity	Condition_name	onset	duration	ITI_duration	109.9281	0	0	0	False
20	trial_id	trial_type	trial_code	SM_velocity	OM_velocity	Condition_name	onset	duration	ITI_duration	116.3804	0	0	0	False
21	trial_id	trial_type	trial_code	SM_velocity	OM_velocity	Condition_name	onset	duration	ITI_duration	120.0956	0	0	0	False
22	trial_id	trial_type	trial_code	SM_velocity	OM_velocity	Condition_name	onset	duration	ITI_duration	127.9157	0	0	0	False
23	trial_id	trial_type	trial_code	SM_velocity	OM_velocity	Condition_name	onset	duration	ITI_duration	133.9885	0	0	0	False
24	trial_id	trial_type	trial_code	SM_velocity	OM_velocity	Condition_name	onset	duration	ITI_duration	138.1603	0	0	0	False
25	trial_id	trial_type	trial_code	SM_velocity	OM_velocity	Condition_name	onset	duration	ITI_duration	146.2728	0	0	0	False
26	trial_id	trial_type	trial_code	SM_velocity	OM_velocity	Condition_name	onset	duration	ITI_duration	150.6528	0	0	0	False

Index	trial_id	trial_type	trial_code	SM_velocity	OM_velocity	Condition_name	onset	duration	ITI_duration	StartTime	ChangeTime	Response	ResponseTime	Valid
1	trial_id	trial_type	trial_code	SM_velocity	OM_velocity	Condition_name	onset	duration	ITI_duration	1.667019	0	0	0	False
2	trial_id	trial_type	trial_code	SM_velocity	OM_velocity	Condition_name	onset	duration	ITI_duration	5.588515	0	0	0	False
3	trial_id	trial_type	trial_code	SM_velocity	OM_velocity	Condition_name	onset	duration	ITI_duration	12.22594	0	0	0	False
4	trial_id	trial_type	trial_code	SM_velocity	OM_velocity	Condition_name	onset	duration	ITI_duration	19.45922	0	0	0	False
5	trial_id	trial_type	trial_code	SM_velocity	OM_velocity	Condition_name	onset	duration	ITI_duration	24.29605	0	0	0	False
6	trial_id	trial_type	trial_code	SM_velocity	OM_velocity	Condition_name	onset	duration	ITI_duration	32.61447	0	0	0	False
7	trial_id	trial_type	trial_code	SM_velocity	OM_velocity	Condition_name	onset	duration	ITI_duration	37.48413	0	0	0	False
8	trial_id	trial_type	trial_code	SM_velocity	OM_velocity	Condition_name	onset	duration	ITI_duration	45.89814	0	0	0	False
9	trial_id	trial_type	trial_code	SM_velocity	OM_velocity	Condition_name	onset	duration	ITI_duration	50.92571	0	0	0	False
10	trial_id	trial_type	trial_code	SM_velocity	OM_velocity	Condition_name	onset	duration	ITI_duration	55.59239	0	0	0	False
11	trial_id	trial_type	trial_code	SM_velocity	OM_velocity	Condition_name	onset	duration	ITI_duration	59.92744	0	0	0	False
12	trial_id	trial_type	trial_code	SM_velocity	OM_velocity	Condition_name	onset	duration	ITI_duration	67.31239	0	0	0	False

Index	trial_id	trial_type	trial_code	SM_velocity	OM_velocity	Condition_name	onset	duration	ITI_duration	StartTime	ChangeTime	Response	ResponseTime	Valid
1	trial_id	trial_type	trial_code	SM_velocity	OM_velocity	Condition_name	onset	duration	ITI_duration	0.183624	0	0	0	False
2	trial_id	trial_type	trial_code	SM_velocity	OM_velocity	Condition_name	onset	duration	ITI_duration	4.067843	0	0	0	False
3	trial_id	trial_type	trial_code	SM_velocity	OM_velocity	Condition_name	onset	duration	ITI_duration	10.58651	0	0	0	False
4	trial_id	trial_type	trial_code	SM_velocity	OM_velocity	Condition_name	onset	duration	ITI_duration	17.79057	0	0	0	False
5	trial_id	trial_type	trial_code	SM_velocity	OM_velocity	Condition_name	onset	duration	ITI_duration	22.63492	0	0	0	False
6	trial_id	trial_type	trial_code	SM_velocity	OM_velocity	Condition_name	onset	duration	ITI_duration	30.93456	0	0	0	False
7	trial_id	trial_type	trial_code	SM_velocity	OM_velocity	Condition_name	onset	duration	ITI_duration	35.74729	0	0	0	False
8	trial_id	trial_type	trial_code	SM_velocity	OM_velocity	Condition_name	onset	duration	ITI_duration	44.08319	0	0	0	False
9	trial_id	trial_type	trial_code	SM_velocity	OM_velocity	Condition_name	onset	duration	ITI_duration	49.09496	0	0	0	False
10	trial_id	trial_type	trial_code	SM_velocity	OM_velocity	Condition_name	onset	duration	ITI_duration	53.79291	0	0	0	False
11	trial_id	trial_type	trial_code	SM_velocity	OM_velocity	Condition_name	onset	duration	ITI_duration	58.10494	0	0	0	False
12	trial_id	trial_type	trial_code	SM_velocity	OM_velocity	Condition_name	onset	duration	ITI_duration	65.59612	0	0	0	False
13	trial_id	trial_type	trial_code	SM_velocity	OM_velocity	Condition_name	onset	duration	ITI_duration	69.30829	0	0	0	False
14	trial_id	trial_type	trial_code	SM_velocity	OM_velocity	Condition_name	onset	duration	ITI_duration	76.10832	0	0	0	False
15	trial_id	trial_type	trial_code	SM_velocity	OM_velocity	Condition_name	onset	duration	ITI_duration	80.18419	0	0	0	False
16	trial_id	trial_type	trial_code	SM_velocity	OM_velocity	Condition_name	onset	duration	ITI_duration	87.59634	0	0	0	False
17	trial_id	trial_type	trial_code	SM_velocity	OM_velocity	Condition_name	onset	duration	ITI_duration	94.32093	0	0	0	False

Index	trial_id	trial_type	trial_code	SM_velocity	OM_velocity	Condition_name	onset	duration	ITI_duration	StartTime	ChangeTime	Response	ResponseTime	Valid
1	trial_id	trial_type	trial_code	SM_velocity	OM_velocity	Condition_name	onset	duration	ITI_duration	5.597264	0	0	0	False
2	trial_id	trial_type	trial_code	SM_velocity	OM_velocity	Condition_name	onset	duration	ITI_duration	9.513638	0	0	0	False
3	trial_id	trial_type	trial_code	SM_velocity	OM_velocity	Condition_name	onset	duration	ITI_duration	16.0433	0	0	0	False
4	trial_id	trial_type	trial_code	SM_velocity	OM_velocity	Condition_name	onset	duration	ITI_duration	23.26331	0	0	0	False
5	trial_id	trial_type	trial_code	SM_velocity	OM_velocity	Condition_name	onset	duration	ITI_duration	28.06244	0	0	0	False
6	trial_id	trial_type	trial_code	SM_velocity	OM_velocity	Condition_name	onset	duration	ITI_duration	36.39034	0	0	0	False
7	trial_id	trial_type	trial_code	SM_velocity	OM_velocity	Condition_name	onset	duration	ITI_duration	41.20304	0	0	0	False
8	trial_id	trial_type	trial_code	SM_velocity	OM_velocity	Condition_name	onset	duration	ITI_duration	49.50143	0	0	0	False
9	trial_id	trial_type	trial_code	SM_velocity	OM_velocity	Condition_name	onset	duration	ITI_duration	54.47472	0	0	0	False
10	trial_id	trial_type	trial_code	SM_velocity	OM_velocity	Condition_name	onset	duration	ITI_duration	59.05217	0	0	0	False
11	trial_id	trial_type	trial_code	SM_velocity	OM_velocity	Condition_name	onset	duration	ITI_duration	63.32277	0	0	0	False

Index	trial_id	trial_type	trial_code	SM_velocity	OM_velocity	Condition_name	onset	duration	ITI_duration	StartTime	ChangeTime	Response	ResponseTime	Valid
1	trial_id	trial_type	trial_code	SM_velocity	OM_velocity	Condition_name	onset	duration	ITI_duration	2.637877	0	0	0	False
2	trial_id	trial_type	trial_code	SM_velocity	OM_velocity	Condition_name	onset	duration	ITI_duration	6.546035	0	0	0	False
3	trial_id	trial_type	trial_code	SM_velocity	OM_velocity	Condition_name	onset	duration	ITI_duration	13.00827	0	0	0	False
4	trial_id	trial_type	trial_code	SM_velocity	OM_velocity	Condition_name	onset	duration	ITI_duration	20.17552	0	0	0	False
5	trial_id	trial_type	trial_code	SM_velocity	OM_velocity	Condition_name	onset	duration	ITI_duration	24.96884	0	0	0	False
6	trial_id	trial_type	trial_code	SM_velocity	OM_velocity	Condition_name	onset	duration	ITI_duration	33.26828	0	0	0	False

Index	trial_id	trial_type	trial_code	SM_velocity	OM_velocity	Condition_name	onset	duration	ITI_duration	StartTime	ChangeTime	Response	ResponseTime	Valid
1	trial_id	trial_type	trial_code	SM_velocity	OM_velocity	Condition_name	onset	duration	ITI_duration	0.2124161	0	0	0	False
2	trial_id	trial_type	trial_code	SM_velocity	OM_velocity	Condition_name	onset	duration	ITI_duration	4.097731	0	0	0	False
3	trial_id	trial_type	trial_code	SM_velocity	OM_velocity	Condition_name	onset	duration	ITI_duration	10.54876	0	0	0	False
4	trial_id	trial_type	trial_code	SM_velocity	OM_velocity	Condition_name	onset	duration	ITI_duration	17.72033	0	0	0	False
5	trial_id	trial_type	trial_code	SM_velocity	OM_velocity	Condition_name	onset	duration	ITI_duration	22.50355	0	0	0	False

Index	trial_id	trial_type	trial_code	SM_velocity	OM_velocity	Condition_name	onset	duration	ITI_duration	StartTime	ChangeTime	Response	ResponseTime	Valid
1	trial_id	trial_type	trial_code	SM_velocity	OM_velocity	Condition_name	onset	duration	ITI_duration	1.964918	0	0	0	False
2	trial_id	trial_type	trial_code	SM_velocity	OM_velocity	Condition_name	onset	duration	ITI_duration	5.893331	0	0	0	False
3	trial_id	trial_type	trial_code	SM_velocity	OM_velocity	Condition_name	onset	duration	ITI_duration	12.34911	0	0	0	False
4	trial_id	trial_type	trial_code	SM_velocity	OM_velocity	Condition_name	onset	duration	ITI_duration	19.51133	0	0	0	False
5	trial_id	trial_type	trial_code	SM_velocity	OM_velocity	Condition_name	onset	duration	ITI_duration	24.27808	0	0	0	False
6	trial_id	trial_type	trial_code	SM_velocity	OM_velocity	Condition_name	onset	duration	ITI_duration	32.52379	0	0	0	False
7	trial_id	trial_type	trial_code	SM_velocity	OM_velocity	Condition_name	onset	duration	ITI_duration	37.28978	0	0	0	False
8	trial_id	trial_type	trial_code	SM_velocity	OM_velocity	Condition_name	onset	duration	ITI_duration	45.56175	0	0	0	False
9	trial_id	trial_type	trial_code	SM_velocity	OM_velocity	Condition_name	onset	duration	ITI_duration	50.51847	0	0	0	False
10	trial_id	trial_type	trial_code	SM_velocity	OM_velocity	Condition_name	onset	duration	ITI_duration	55.11092	0	0	0	False
11	trial_id	trial_type	trial_code	SM_velocity	OM_velocity	Condition_name	onset	duration	ITI_duration	59.42723	0	0	0	False
12	trial_id	trial_type	trial_code	SM_velocity	OM_velocity	Condition_name	onset	duration	ITI_duration	66.84332	0	0	0	False
13	trial_id	trial_type	trial_code	SM_velocity	OM_velocity	Condition_name	onset	duration	ITI_duration	70.58331	0	0	0	False
14	trial_id	trial_type	trial_code	SM_velocity	OM_velocity	Condition_name	onset	duration	ITI_duration	77.38409	0	0	0	False
15	trial_id	trial_type	trial_code	SM_velocity	OM_velocity	Condition_name	onset	duration	ITI_duration	81.46782	0	0	0	False

Index	trial_id	trial_type	trial_code	SM_velocity	OM_velocity	Condition_name	onset	duration	ITI_duration	StartTime	ChangeTime	Response	ResponseTime	Valid
1	trial_id	trial_type	trial_code	SM_velocity	OM_velocity	Condition_name	onset	duration	ITI_duration	0.200532	0	0	0	False
2	trial_id	trial_type	trial_code	SM_velocity	OM_velocity	Condition_name	onset	duration	ITI_duration	4.146041	0	0	0	False
3	trial_id	trial_type	trial_code	SM_velocity	OM_velocity	Condition_name	onset	duration	ITI_duration	10.61698	0	0	0	False
4	trial_id	trial_type	trial_code	SM_velocity	OM_velocity	Condition_name	onset	duration	ITI_duration	17.78058	0	0	0	False
5	trial_id	trial_type	trial_code	SM_velocity	OM_velocity	Condition_name	onset	duration	ITI_duration	22.54897	0	0	0	False
6	trial_id	trial_type	trial_code	SM_velocity	OM_velocity	Condition_name	onset	duration	ITI_duration	30.82137	0	0	0	False
7	trial_id	trial_type	trial_code	SM_velocity	OM_velocity	Condition_name	onset	duration	ITI_duration	35.57731	0	0	0	False
8	trial_id	trial_type	trial_code	SM_velocity	OM_velocity	Condition_name	onset	duration	ITI_duration	43.83408	0	0	0	False
9	trial_id	trial_type	trial_code	SM_velocity	OM_velocity	Condition_name	onset	duration	ITI_duration	48.81126	0	0	0	False
10	trial_id	trial_type	trial_code	SM_velocity	OM_velocity	Condition_name	onset	duration	ITI_duration	53.40082	0	0	0	False
11	trial_id	trial_type	trial_code	SM_velocity	OM_velocity	Condition_name	onset	duration	ITI_duration	57.67014	0	0	0	False
12	trial_id	trial_type	trial_code	SM_velocity	OM_velocity	Condition_name	onset	duration	ITI_duration	65.04298	0	0	0	False
13	trial_id	trial_type	trial_code	SM_velocity	OM_velocity	Condition_name	onset	duration	ITI_duration	68.70329	0	0	0	False

Index	trial_id	trial_type	trial_code	SM_velocity	OM_velocity	Condition_name	onset	duration	ITI_duration	StartTime	ChangeTime	Response	ResponseTime	Valid
1	trial_id	trial_type	trial_code	SM_velocity	OM_velocity	Condition_name	onset	duration	ITI_duration	1.805857	0	0	0	False
2	trial_id	trial_type	trial_code	SM_velocity	OM_velocity	Condition_name	onset	duration	ITI_duration	5.68649	0	0	0	False
3	trial_id	trial_type	trial_code	SM_velocity	OM_velocity	Condition_name	onset	duration	ITI_duration	12.1516	0	0	0	False
4	trial_id	trial_type	trial_code	SM_velocity	OM_velocity	Condition_name	onset	duration	ITI_duration	19.29995	0	0	0	False
5	trial_id	trial_type	trial_code	SM_velocity	OM_velocity	Condition_name	onset	duration	ITI_duration	24.1417	0	0	0	False
6	trial_id	trial_type	trial_code	SM_velocity	OM_velocity	Condition_name	onset	duration	ITI_duration	32.50614	0	0	0	False

Index	trial_id	trial_type	trial_code	SM_velocity	OM_velocity	Condition_name	onset	duration	ITI_duration	StartTime	ChangeTime	Response	ResponseTime	Valid
1	trial_id	trial_type	trial_code	SM_velocity	OM_velocity	Condition_name	onset	duration	ITI_duration	5.044219	0	0	0	False
2	trial_id	trial_type	trial_code	SM_velocity	OM_velocity	Condition_name	onset	duration	ITI_duration	8.996139	0	0	0	False
3	trial_id	trial_type	trial_code	SM_velocity	OM_velocity	Condition_name	onset	duration	ITI_duration	15.47943	0	0	0	False
4	trial_id	trial_type	trial_code	SM_velocity	OM_velocity	Condition_name	onset	duration	ITI_duration	22.69935	0	0	0	False
5	trial_id	trial_type	trial_code	SM_velocity	OM_velocity	Condition_name	onset	duration	ITI_duration	27.47725	0	0	0	False
6	trial_id	trial_type	trial_code	SM_velocity	OM_velocity	Condition_name	onset	duration	ITI_duration	35.74812	0	0	0	False
7	trial_id	trial_type	trial_code	SM_velocity	OM_velocity	Condition_name	onset	duration	ITI_duration	40.5319	0	0	0	False
8	trial_id	trial_type	trial_code	SM_velocity	OM_velocity	Condition_name	onset	duration	ITI_duration	48.79566	0	0	0	False

Index	trial_id	trial_type	trial_code	SM_velocity	OM_velocity	Condition_name	onset	duration	ITI_duration	StartTime	ChangeTime	Response	ResponseTime	Valid
1	trial_id	trial_type	trial_code	SM_velocity	OM_velocity	Condition_name	onset	duration	ITI_duration	2.274709	0	0	0	False
2	trial_id	trial_type	trial_code	SM_velocity	OM_velocity	Condition_name	onset	duration	ITI_duration	6.187251	0	0	0	False
3	trial_id	trial_type	trial_code	SM_velocity	OM_velocity	Condition_name	onset	duration	ITI_duration	12.72976	0	0	0	False
4	trial_id	trial_type	trial_code	SM_velocity	OM_velocity	Condition_name	onset	duration	ITI_duration	19.94707	0	0	0	False
5	trial_id	trial_type	trial_code	SM_velocity	OM_velocity	Condition_name	onset	duration	ITI_duration	24.73534	0	0	0	False
6	trial_id	trial_type	trial_code	SM_velocity	OM_velocity	Condition_name	onset	duration	ITI_duration	33.05427	0	0	0	False

Index	trial_id	trial_type	trial_code	SM_velocity	OM_velocity	Condition_name	onset	duration	ITI_duration	StartTime	ChangeTime	Response	ResponseTime	Valid
1	trial_id	trial_type	trial_code	SM_velocity	OM_velocity	Condition_name	onset	duration	ITI_duration	1.092554	0	0	0	False
2	trial_id	trial_type	trial_code	SM_velocity	OM_velocity	Condition_name	onset	duration	ITI_duration	5.037227	0	0	0	False
3	trial_id	trial_type	trial_code	SM_velocity	OM_velocity	Condition_name	onset	duration	ITI_duration	11.56019	0	0	0	False
4	trial_id	trial_type	trial_code	SM_velocity	OM_velocity	Condition_name	onset	duration	ITI_duration	18.77402	0	0	0	False
5	trial_id	trial_type	trial_code	SM_velocity	OM_velocity	Condition_name	onset	duration	ITI_duration	23.60346	0	0	0	False
6	trial_id	trial_type	trial_code	SM_velocity	OM_velocity	Condition_name	onset	duration	ITI_duration	31.90121	0	0	0	False
7	trial_id	trial_type	trial_code	SM_velocity	OM_velocity	Condition_name	onset	duration	ITI_duration	36.6667	0	0	0	False
8	trial_id	trial_type	trial_code	SM_velocity	OM_velocity	Condition_name	onset	duration	ITI_duration	44.93116	0	0	0	False

Index	trial_id	trial_type	trial_code	SM_velocity	OM_velocity	Condition_name	onset	duration	ITI_duration	StartTime	ChangeTime	Response	ResponseTime	Valid
1	trial_id	trial_type	trial_code	SM_velocity	OM_velocity	Condition_name	onset	duration	ITI_duration	51.68729	0	0	0	False
2	trial_id	trial_type	trial_code	SM_velocity	OM_velocity	Condition_name	onset	duration	ITI_duration	55.58404	0	0	0	False
3	trial_id	trial_type	trial_code	SM_velocity	OM_velocity	Condition_name	onset	duration	ITI_duration	62.11613	0	0	0	False
4	trial_id	trial_type	trial_code	SM_velocity	OM_velocity	Condition_name	onset	duration	ITI_duration	69.32298	0	0	0	False
5	trial_id	trial_type	trial_code	SM_velocity	OM_velocity	Condition_name	onset	duration	ITI_duration	74.12443	0	0	0	False
6	trial_id	trial_type	trial_code	SM_velocity	OM_velocity	Condition_name	onset	duration	ITI_duration	82.45286	0	0	0	False
7	trial_id	trial_type	trial_code	SM_velocity	OM_velocity	Condition_name	onset	duration	ITI_duration	87.27669	0	0	0	False
8	trial_id	trial_type	trial_code	SM_velocity	OM_velocity	Condition_name	onset	duration	ITI_duration	95.56952	0	0	0	False
9	trial_id	trial_type	trial_code	SM_velocity	OM_velocity	Condition_name	onset	duration	ITI_duration	100.5648	0	0	0	False

Index	trial_id	trial_type	trial_code	SM_velocity	OM_velocity	Condition_name	onset	duration	ITI_duration	StartTime	ChangeTime	Response	ResponseTime	Valid
1	trial_id	trial_type	trial_code	SM_velocity	OM_velocity	Condition_name	onset	duration	ITI_duration	0.209682	0	0	0	False
2	trial_id	trial_type	trial_code	SM_velocity	OM_velocity	Condition_name	onset	duration	ITI_duration	4.117306	0	0	0	False
3	trial_id	trial_type	trial_code	SM_velocity	OM_velocity	Condition_name	onset	duration	ITI_duration	10.64191	0	0	0	False
4	trial_id	trial_type	trial_code	SM_velocity	OM_velocity	Condition_name	onset	duration	ITI_duration	17.85814	0	0	0	False
5	trial_id	trial_type	trial_code	SM_velocity	OM_velocity	Condition_name	onset	duration	ITI_duration	22.65745	0	0	0	False

Index	trial_id	trial_type	trial_code	SM_velocity	OM_velocity	Condition_name	onset	duration	ITI_duration	StartTime	ChangeTime	Response	ResponseTime	Valid
1	trial_id	trial_type	trial_code	SM_velocity	OM_velocity	Condition_name	onset	duration	ITI_duration	3.265366	0	0	0	False
2	trial_id	trial_type	trial_code	SM_velocity	OM_velocity	Condition_name	onset	duration	ITI_duration	7.194654	0	0	0	False
3	trial_id	trial_type	trial_code	SM_velocity	OM_velocity	Condition_name	onset	duration	ITI_duration	13.73266	0	0	0	False
4	trial_id	trial_type	trial_code	SM_velocity	OM_velocity	Condition_name	onset	duration	ITI_duration	20.9214	0	0	0	False

Index	trial_id	trial_type	trial_code	SM_velocity	OM_velocity	Condition_name	onset	duration	ITI_duration	StartTime	ChangeTime	Response	ResponseTime	Valid
1	trial_id	trial_type	trial_code	SM_velocity	OM_velocity	Condition_name	onset	duration	ITI_duration	0.1792259	0	0	0	False
2	trial_id	trial_type	trial_code	SM_velocity	OM_velocity	Condition_name	onset	duration	ITI_duration	4.110626	0	0	0	False
3	trial_id	trial_type	trial_code	SM_velocity	OM_velocity	Condition_name	onset	duration	ITI_duration	10.62851	0	0	0	False
4	trial_id	trial_type	trial_code	SM_velocity	OM_velocity	Condition_name	onset	duration	ITI_duration	17.82243	0	0	0	False
5	trial_id	trial_type	trial_code	SM_velocity	OM_velocity	Condition_name	onset	duration	ITI_duration	22.5818	0	0	0	False
6	trial_id	trial_type	trial_code	SM_velocity	OM_velocity	Condition_name	onset	duration	ITI_duration	30.85984	0	0	0	False
7	trial_id	trial_type	trial_code	SM_velocity	OM_velocity	Condition_name	onset	duration	ITI_duration	35.60642	0	0	0	False
8	trial_id	trial_type	trial_code	SM_velocity	OM_velocity	Condition_name	onset	duration	ITI_duration	43.86206	0	0	0	False
9	trial_id	trial_type	trial_code	SM_velocity	OM_velocity	Condition_name	onset	duration	ITI_duration	48.81736	0	0	0	False
10	trial_id	trial_type	trial_code	SM_velocity	OM_velocity	Condition_name	onset	duration	ITI_duration	53.38653	0	0	0	False
11	trial_id	trial_type	trial_code	SM_velocity	OM_velocity	Condition_name	onset	duration	ITI_duration	57.63694	0	0	0	False
12	trial_id	trial_type	trial_code	SM_velocity	OM_velocity	Condition_name	onset	duration	ITI_duration	64.98727	0	0	0	False
13	trial_id	trial_type	trial_code	SM_velocity	OM_velocity	Condition_name	onset	duration	ITI_duration	68.66981	0	0	0	False
14	trial_id	trial_type	trial_code	SM_velocity	OM_velocity	Condition_name	onset	duration	ITI_duration	75.48881	0	0	0	False
15	trial_id	trial_type	trial_code	SM_velocity	OM_velocity	Condition_name	onset	duration	ITI_duration	79.61025	0	0	0	False
16	trial_id	trial_type	trial_code	SM_velocity	OM_velocity	Condition_name	onset	duration	ITI_duration	86.95452	0	0	0	False

Index	trial_id	trial_type	trial_code	SM_velocity	OM_velocity	Condition_name	onset	duration	ITI_duration	StartTime	ChangeTime	Response	ResponseTime	Valid
1	trial_id	trial_type	trial_code	SM_velocity	OM_velocity	Condition_name	onset	duration	ITI_duration	0.66131	0	0	0	False
2	trial_id	trial_type	trial_code	SM_velocity	OM_velocity	Condition_name	onset	duration	ITI_duration	4.565535	0	0	0	False
3	trial_id	trial_type	trial_code	SM_velocity	OM_velocity	Condition_name	onset	duration	ITI_duration	11.07602	0	0	0	False
4	trial_id	trial_type	trial_code	SM_velocity	OM_velocity	Condition_name	onset	duration	ITI_duration	18.2724	0	0	0	False

Index	trial_id	trial_type	trial_code	SM_velocity	OM_velocity	Condition_name	onset	duration	ITI_duration	StartTime	ChangeTime	Response	ResponseTime	Valid
1	trial_id	trial_type	trial_code	SM_velocity	OM_velocity	Condition_name	onset	duration	ITI_duration	1.730418	0	0	0	False
2	trial_id	trial_type	trial_code	SM_velocity	OM_velocity	Condition_name	onset	duration	ITI_duration	5.633324	0	0	0	False
3	trial_id	trial_type	trial_code	SM_velocity	OM_velocity	Condition_name	onset	duration	ITI_duration	12.11262	0	0	0	False

Index	trial_id	trial_type	trial_code	SM_velocity	OM_velocity	Condition_name	onset	duration	ITI_duration	StartTime	ChangeTime	Response	ResponseTime	Valid
1	trial_id	trial_type	trial_code	SM_velocity	OM_velocity	Condition_name	onset	duration	ITI_duration	1.897493	0	0	0	False
2	trial_id	trial_type	trial_code	SM_velocity	OM_velocity	Condition_name	onset	duration	ITI_duration	5.80088	0	0	0	False
3	trial_id	trial_type	trial_code	SM_velocity	OM_velocity	Condition_name	onset	duration	ITI_duration	12.31878	0	0	0	False
4	trial_id	trial_type	trial_code	SM_velocity	OM_velocity	Condition_name	onset	duration	ITI_duration	19.50446	0	0	0	False
5	trial_id	trial_type	trial_code	SM_velocity	OM_velocity	Condition_name	onset	duration	ITI_duration	24.33436	0	0	0	False
6	trial_id	trial_type	trial_code	SM_velocity	OM_velocity	Condition_name	onset	duration	ITI_duration	32.63731	0	0	0	False
7	trial_id	trial_type	trial_code	SM_velocity	OM_velocity	Condition_name	onset	duration	ITI_duration	37.46173	0	0	0	False

Index	trial_id	trial_type	trial_code	SM_velocity	OM_velocity	Condition_name	onset	duration	ITI_duration	StartTime	ChangeTime	Response	ResponseTime	Valid
1	trial_id	trial_type	trial_code	SM_velocity	OM_velocity	Condition_name	onset	duration	ITI_duration	1.667142	0	0	0	False
2	trial_id	trial_type	trial_code	SM_velocity	OM_velocity	Condition_name	onset	duration	ITI_duration	5.550902	0	0	0	False
3	trial_id	trial_type	trial_code	SM_velocity	OM_velocity	Condition_name	onset	duration	ITI_duration	12.08911	0	0	0	False
4	trial_id	trial_type	trial_code	SM_velocity	OM_velocity	Condition_name	onset	duration	ITI_duration	19.28884	0	0	0	False
5	trial_id	trial_type	trial_code	SM_velocity	OM_velocity	Condition_name	onset	duration	ITI_duration	24.11211	0	0	0	False
6	trial_id	trial_type	trial_code	SM_velocity	OM_velocity	Condition_name	onset	duration	ITI_duration	32.38588	0	0	0	False
7	trial_id	trial_type	trial_code	SM_velocity	OM_velocity	Condition_name	onset	duration	ITI_duration	37.17487	0	0	0	False
8	trial_id	trial_type	trial_code	SM_velocity	OM_velocity	Condition_name	onset	duration	ITI_duration	45.49784	0	0	0	False
9	trial_id	trial_type	trial_code	SM_velocity	OM_velocity	Condition_name	onset	duration	ITI_duration	50.53566	0	0	0	False
10	trial_id	trial_type	trial_code	SM_velocity	OM_velocity	Condition_name	onset	duration	ITI_duration	55.11896	0	0	0	False
11	trial_id	trial_type	trial_code	SM_velocity	OM_velocity	Condition_name	onset	duration	ITI_duration	59.39525	0	0	0	False
12	trial_id	trial_type	trial_code	SM_velocity	OM_velocity	Condition_name	onset	duration	ITI_duration	66.79179	0	0	0	False
13	trial_id	trial_type	trial_code	SM_velocity	OM_velocity	Condition_name	onset	duration	ITI_duration	70.46021	0	0	0	False
14	trial_id	trial_type	trial_code	SM_velocity	OM_velocity	Condition_name	onset	duration	ITI_duration	77.26079	0	0	0	False

Index	trial_id	trial_type	trial_code	SM_velocity	OM_velocity	Condition_name	onset	duration	ITI_duration	StartTime	ChangeTime	Response	ResponseTime	Valid
1	trial_id	trial_type	trial_code	SM_velocity	OM_velocity	Condition_name	onset	duration	ITI_duration	0.8772691	0	0	0	False
2	trial_id	trial_type	trial_code	SM_velocity	OM_velocity	Condition_name	onset	duration	ITI_duration	4.771817	0	0	0	False
3	trial_id	trial_type	trial_code	SM_velocity	OM_velocity	Condition_name	onset	duration	ITI_duration	11.21998	0	0	0	False
4	trial_id	trial_type	trial_code	SM_velocity	OM_velocity	Condition_name	onset	duration	ITI_duration	18.41874	0	0	0	False

Index	trial_id	trial_type	trial_code	SM_velocity	OM_velocity	Condition_name	onset	duration	ITI_duration	StartTime	ChangeTime	Response	ResponseTime	Valid
1	trial_id	trial_type	trial_code	SM_velocity	OM_velocity	Condition_name	onset	duration	ITI_duration	9.234684	0	0	0	False

Index	trial_id	trial_type	trial_code	SM_velocity	OM_velocity	Condition_name	onset	duration	ITI_duration	StartTime	ChangeTime	Response	ResponseTime	Valid
1	trial_id	trial_type	trial_code	SM_velocity	OM_velocity	Condition_name	onset	duration	ITI_duration	0,6650756	0	0	0	False
2	trial_id	trial_type	trial_code	SM_velocity	OM_velocity	Condition_name	onset	duration	ITI_duration	11,70467	0	1	32,62236	True

Index	trial_id	trial_type	trial_code	SM_velocity	OM_velocity	Condition_name	onset	duration	ITI_duration	StartTime	ChangeTime	Response	ResponseTime	Valid
1	trial_id	trial_type	trial_code	SM_velocity	OM_velocity	Condition_name	onset	duration	ITI_duration	1,080482	0	4	3,152594	True
2	trial_id	trial_type	trial_code	SM_velocity	OM_velocity	Condition_name	onset	duration	ITI_duration	4,145936	0	4	5,491862	True
3	trial_id	trial_type	trial_code	SM_velocity	OM_velocity	Condition_name	onset	duration	ITI_duration	7,197928	0	4	10,89362	True
4	trial_id	trial_type	trial_code	SM_velocity	OM_velocity	Condition_name	onset	duration	ITI_duration	11,09199	0	4	14,37329	True
5	trial_id	trial_type	trial_code	SM_velocity	OM_velocity	Condition_name	onset	duration	ITI_duration	14,50565	0	4	16,67595	True
6	trial_id	trial_type	trial_code	SM_velocity	OM_velocity	Condition_name	onset	duration	ITI_duration	17,57106	0	4	19,09701	True
7	trial_id	trial_type	trial_code	SM_velocity	OM_velocity	Condition_name	onset	duration	ITI_duration	20,63722	0	4	21,39932	True
8	trial_id	trial_type	trial_code	SM_velocity	OM_velocity	Condition_name	onset	duration	ITI_duration	23,70213	0	4	25,17652	True
9	trial_id	trial_type	trial_code	SM_velocity	OM_velocity	Condition_name	onset	duration	ITI_duration	26,76692	0	4	28,54003	True
10	trial_id	trial_type	trial_code	SM_velocity	OM_velocity	Condition_name	onset	duration	ITI_duration	29,83175	0	4	31,65557	True
11	trial_id	trial_type	trial_code	SM_velocity	OM_velocity	Condition_name	onset	duration	ITI_duration	32,88181	0	4	34,48909	True
12	trial_id	trial_type	trial_code	SM_velocity	OM_velocity	Condition_name	onset	duration	ITI_duration	35,94696	0	4	37,81961	True
13	trial_id	trial_type	trial_code	SM_velocity	OM_velocity	Condition_name	onset	duration	ITI_duration	39,00135	0	4	47,62636	True
14	trial_id	trial_type	trial_code	SM_velocity	OM_velocity	Condition_name	onset	duration	ITI_duration	47,7584	0	4	49,24964	True
15	trial_id	trial_type	trial_code	SM_velocity	OM_velocity	Condition_name	onset	duration	ITI_duration	50,82417	0	4	58,14602	True

Index	trial_id	trial_type	trial_code	SM_velocity	OM_velocity	Condition_name	onset	duration	ITI_duration	StartTime	ChangeTime	Response	ResponseTime	Valid
1	trial_id	trial_type	trial_code	SM_velocity	OM_velocity	Condition_name	onset	duration	ITI_duration	3,517372	0	1	9,49933	True
2	trial_id	trial_type	trial_code	SM_velocity	OM_velocity	Condition_name	onset	duration	ITI_duration	9,515902	0	1	14,04434	True
3	trial_id	trial_type	trial_code	SM_velocity	OM_velocity	Condition_name	onset	duration	ITI_duration	14,21058	0	1	17,98748	True
4	trial_id	trial_type	trial_code	SM_velocity	OM_velocity	Condition_name	onset	duration	ITI_duration	18,16972	0	1	24,87927	True
5	trial_id	trial_type	trial_code	SM_velocity	OM_velocity	Condition_name	onset	duration	ITI_duration	25,07846	0	1	29,36894	True
6	trial_id	trial_type	trial_code	SM_velocity	OM_velocity	Condition_name	onset	duration	ITI_duration	29,55117	0	1	37,12242	True
7	trial_id	trial_type	trial_code	SM_velocity	OM_velocity	Condition_name	onset	duration	ITI_duration	37,30437	0	1	41,43027	True
8	trial_id	trial_type	trial_code	SM_velocity	OM_velocity	Condition_name	onset	duration	ITI_duration	41,59541	0	1	45,38987	True
9	trial_id	trial_type	trial_code	SM_velocity	OM_velocity	Condition_name	onset	duration	ITI_duration	45,58826	0	1	48,13917	True
10	trial_id	trial_type	trial_code	SM_velocity	OM_velocity	Condition_name	onset	duration	ITI_duration	48,64117	0	1	51,30864	True
11	trial_id	trial_type	trial_code	SM_velocity	OM_velocity	Condition_name	onset	duration	ITI_duration	51,70632	0	1	53,5793	True
12	trial_id	trial_type	trial_code	SM_velocity	OM_velocity	Condition_name	onset	duration	ITI_duration	54,75554	0	1	55,84928	True
13	trial_id	trial_type	trial_code	SM_velocity	OM_velocity	Condition_name	onset	duration	ITI_duration	57,82077	0	1	59,59627	True
14	trial_id	trial_type	trial_code	SM_velocity	OM_velocity	Condition_name	onset	duration	ITI_duration	60,87194	0	1	63,37476	True
15	trial_id	trial_type	trial_code	SM_velocity	OM_velocity	Condition_name	onset	duration	ITI_duration	63,93781	0	1	67,73219	True
16	trial_id	trial_type	trial_code	SM_velocity	OM_velocity	Condition_name	onset	duration	ITI_duration	67,94722	0	1	72,40351	True
17	trial_id	trial_type	trial_code	SM_velocity	OM_velocity	Condition_name	onset	duration	ITI_duration	72,61886	0	1	74,19314	True
18	trial_id	trial_type	trial_code	SM_velocity	OM_velocity	Condition_name	onset	duration	ITI_duration	75,68443	0	1	81,86454	True
19	trial_id	trial_type	trial_code	SM_velocity	OM_velocity	Condition_name	onset	duration	ITI_duration	82,07993	0	1	83,7431	True
20	trial_id	trial_type	trial_code	SM_velocity	OM_velocity	Condition_name	onset	duration	ITI_duration	85,13441	0	1	89,4097	True
21	trial_id	trial_type	trial_code	SM_velocity	OM_velocity	Condition_name	onset	duration	ITI_duration	89,59152	0	1	91,6805	True
22	trial_id	trial_type	trial_code	SM_velocity	OM_velocity	Condition_name	onset	duration	ITI_duration	92,64132	0	1	93,45346	True
23	trial_id	trial_type	trial_code	SM_velocity	OM_velocity	Condition_name	onset	duration	ITI_duration	95,70628	0	1	98,47507	True
24	trial_id	trial_type	trial_code	SM_velocity	OM_velocity	Condition_name	onset	duration	ITI_duration	98,75816	0	1	101,3769	True
25	trial_id	trial_type	trial_code	SM_velocity	OM_velocity	Condition_name	onset	duration	ITI_duration	101,8237	0	1	103,5135	True
26	trial_id	trial_type	trial_code	SM_velocity	OM_velocity	Condition_name	onset	duration	ITI_duration	104,8885	0	1	105,4186	True
27	trial_id	trial_type	trial_code	SM_velocity	OM_velocity	Condition_name	onset	duration	ITI_duration	107,9539	0	1	109,3128	True
28	trial_id	trial_type	trial_code	SM_velocity	OM_velocity	Condition_name	onset	duration	ITI_duration	111,02	0	1	112,2451	True
29	trial_id	trial_type	trial_code	SM_velocity	OM_velocity	Condition_name	onset	duration	ITI_duration	114,0841	0	1	118,7724	True
30	trial_id	trial_type	trial_code	SM_velocity	OM_velocity	Condition_name	onset	duration	ITI_duration	119,0049	0	1	124,6875	True
31	trial_id	trial_type	trial_code	SM_velocity	OM_velocity	Condition_name	onset	duration	ITI_duration	124,9195	0	1	128,3553	True
32	trial_id	trial_type	trial_code	SM_velocity	OM_velocity	Condition_name	onset	duration	ITI_duration	128,5708	0	1	132,2825	True
33	trial_id	trial_type	trial_code	SM_velocity	OM_velocity	Condition_name	onset	duration	ITI_duration	132,4812	0	1	144,5254	True
34	trial_id	trial_type	trial_code	SM_velocity	OM_velocity	Condition_name	onset	duration	ITI_duration	144,6912	0	1	148,0398	True
35	trial_id	trial_type	trial_code	SM_velocity	OM_velocity	Condition_name	onset	duration	ITI_duration	148,222	0	1	153,9707	True
36	trial_id	trial_type	trial_code	SM_velocity	OM_velocity	Condition_name	onset	duration	ITI_duration	154,1862	0	1	156,6568	True
37	trial_id	trial_type	trial_code	SM_velocity	OM_velocity	Condition_name	onset	duration	ITI_duration	157,2361	0	1	158,86	True
38	trial_id	trial_type	trial_code	SM_velocity	OM_velocity	Condition_name	onset	duration	ITI_duration	160,3015	0	1	161,0643	True
39	trial_id	trial_type	trial_code	SM_velocity	OM_velocity	Condition_name	onset	duration	ITI_duration	163,3678	0	1	164,2626	True
40	trial_id	trial_type	trial_code	SM_velocity	OM_velocity	Condition_name	onset	duration	ITI_duration	166,4326	0	1	167,2113	True
41	trial_id	trial_type	trial_code	SM_velocity	OM_velocity	Condition_name	onset	duration	ITI_duration	169,4978	0	1	170,2103	True
42	trial_id	trial_type	trial_code	SM_velocity	OM_velocity	Condition_name	onset	duration	ITI_duration	172,5631	0	1	173,2096	True
43	trial_id	trial_type	trial_code	SM_velocity	OM_velocity	Condition_name	onset	duration	ITI_duration	175,6285	0	1	177,3517	True
44	trial_id	trial_type	trial_code	SM_velocity	OM_velocity	Condition_name	onset	duration	ITI_duration	178,6936	0	1	179,357	True
45	trial_id	trial_type	trial_code	SM_velocity	OM_velocity	Condition_name	onset	duration	ITI_duration	181,7584	0	1	182,3559	True
46	trial_id	trial_type	trial_code	SM_velocity	OM_velocity	Condition_name	onset	duration	ITI_duration	184,8078	0	1	186,2996	True
47	trial_id	trial_type	trial_code	SM_velocity	OM_velocity	Condition_name	onset	duration	ITI_duration	187,8733	0	1	189,6954	True
48	trial_id	trial_type	trial_code	SM_velocity	OM_velocity	Condition_name	onset	duration	ITI_duration	190,9379	0	1	194,4004	True
49	trial_id	trial_type	trial_code	SM_velocity	OM_velocity	Condition_name	onset	duration	ITI_duration	194,5992	0	1	198,9562	True
50	trial_id	trial_type	trial_code	SM_velocity	OM_velocity	Condition_name	onset	duration	ITI_duration	199,1393	0	1	202,5909	True
51	trial_id	trial_type	trial_code	SM_velocity	OM_velocity	Condition_name	onset	duration	ITI_duration	202,757	0	1	206,3698	True
52	trial_id	trial_type	trial_code	SM_velocity	OM_velocity	Condition_name	onset	duration	ITI_duration	206,5518	0	1	208,8711	True

Index	trial_id	trial_type	trial_code	SM_velocity	OM_velocity	Condition_name	onset	duration	ITI_duration	StartTime	ChangeTime	Response	ResponseTime	Valid
1	trial_id	trial_type	trial_code	SM_velocity	OM_velocity	Condition_name	onset	duration	ITI_duration	0,4518035	0	1	5,333	True
2	trial_id	trial_type	trial_code	SM_velocity	OM_velocity	Condition_name	onset	duration	ITI_duration	5,548718	0	1	9,640854	True
3	trial_id	trial_type	trial_code	SM_velocity	OM_velocity	Condition_name	onset	duration	ITI_duration	9,823365	0	1	13,93121	True
4	trial_id	trial_type	trial_code	SM_velocity	OM_velocity	Condition_name	onset	duration	ITI_duration	14,09678	0	0	0	False

Index	trial_id	trial_type	trial_code	SM_velocity	OM_velocity	Condition_name	onset	duration	ITI_duration	StartTime	ChangeTime	Response	ResponseTime	Valid
1	trial_id	trial_type	trial_code	SM_velocity	OM_velocity	Condition_name	onset	duration	ITI_duration	4,087009	0	1	5,695863	True
2	trial_id	trial_type	trial_code	SM_velocity	OM_velocity	Condition_name	onset	duration	ITI_duration	7,137448	0	1	9,325316	True
3	trial_id	trial_type	trial_code	SM_velocity	OM_velocity	Condition_name	onset	duration	ITI_duration	10,18678	0	1	13,31826	True
4	trial_id	trial_type	trial_code	SM_velocity	OM_velocity	Condition_name	onset	duration	ITI_duration	13,55001	0	1	18,15535	True

Index	trial_id	trial_type	trial_code	SM_velocity	OM_velocity	Condition_name	onset	duration	ITI_duration	StartTime	ChangeTime	Response	ResponseTime	Valid
1	trial_id	trial_type	trial_code	SM_velocity	OM_velocity	Condition_name	onset	duration	ITI_duration	2,291953	0	1	8,038836	True
2	trial_id	trial_type	trial_code	SM_velocity	OM_velocity	Condition_name	onset	duration	ITI_duration	8,25389	0	1	11,71637	True
3	trial_id	trial_type	trial_code	SM_velocity	OM_velocity	Condition_name	onset	duration	ITI_duration	11,89856	0	1	15,26177	True
4	trial_id	trial_type	trial_code	SM_velocity	OM_velocity	Condition_name	onset	duration	ITI_duration	15,49407	0	1	19,00566	True
5	trial_id	trial_type	trial_code	SM_velocity	OM_velocity	Condition_name	onset	duration	ITI_duration	19,23759	0	1	28,366	True
6	trial_id	trial_type	trial_code	SM_velocity	OM_velocity	Condition_name	onset	duration	ITI_duration	29,37666	0	1	29,74286	True
7	trial_id	trial_type	trial_code	SM_velocity	OM_velocity	Condition_name	onset	duration	ITI_duration	32,42666	0	1	40,44579	True
8	trial_id	trial_type	trial_code	SM_velocity	OM_velocity	Condition_name	onset	duration	ITI_duration	40,66089	0	1	44,7199	True

Index	trial_id	trial_type	trial_code	SM_velocity	OM_velocity	Condition_name	onset	duration	ITI_duration	StartTime	ChangeTime	Response	ResponseTime	Valid
1	trial_id	trial_type	trial_code	SM_velocity	OM_velocity	Condition_name	onset	duration	ITI_duration	0,8862477	0	0	0	False

Index	trial_id	trial_type	trial_code	SM_velocity	OM_velocity	Condition_name	onset	duration	ITI_duration	StartTime	ChangeTime	Response	ResponseTime	Valid
1	trial_id	trial_type	trial_code	SM_velocity	OM_velocity	Condition_name	onset	duration	ITI_duration	1,36976	0	1	3,328441	True
2	trial_id	trial_type	trial_code	SM_velocity	OM_velocity	Condition_name	onset	duration	ITI_duration	4,421842	0	1	5,018243	True
3	trial_id	trial_type	trial_code	SM_velocity	OM_velocity	Condition_name	onset	duration	ITI_duration	7,486675	0	1	10,86753	True
4	trial_id	trial_type	trial_code	SM_velocity	OM_velocity	Condition_name	onset	duration	ITI_duration	11,08289	0	1	14,38517	True
5	trial_id	trial_type	trial_code	SM_velocity	OM_velocity	Condition_name	onset	duration	ITI_duration	14,6171	0	1	18,12967	True
6	trial_id	trial_type	trial_code	SM_velocity	OM_velocity	Condition_name	onset	duration	ITI_duration	18,34504	0	1	21,79047	True

Index	trial_id	trial_type	trial_code	SM_velocity	OM_velocity	Condition_name	onset	duration	ITI_duration	StartTime	ChangeTime	Response	ResponseTime	Valid
1	trial_id	trial_type	trial_code	SM_velocity	OM_velocity	Condition_name	onset	duration	ITI_duration	0,1455563	0	4	2,15153	True
2	trial_id	trial_type	trial_code	SM_velocity	OM_velocity	Condition_name	onset	duration	ITI_duration	3,211324	0	4	4,636058	True

Index	trial_id	trial_type	trial_code	SM_velocity	OM_velocity	Condition_name	onset	duration	ITI_duration	StartTime	ChangeTime	Response	ResponseTime	Valid
1	trial_id	trial_type	trial_code	SM_velocity	OM_velocity	Condition_name	onset	duration	ITI_duration	9.607372	0	0	0	False
2	trial_id	trial_type	trial_code	SM_velocity	OM_velocity	Condition_name	onset	duration	ITI_duration	13.52174	0	0	0	False
3	trial_id	trial_type	trial_code	SM_velocity	OM_velocity	Condition_name	onset	duration	ITI_duration	20.03395	0	0	0	False

Index	trial_id	trial_type	trial_code	SM_velocity	OM_velocity	Condition_name	onset	duration	ITI_duration	StartTime	ChangeTime	Response	ResponseTime	Valid
1	trial_id	trial_type	trial_code	SM_velocity	OM_velocity	Condition_name	onset	duration	ITI_duration	2.983562	0	0	0	False
2	trial_id	trial_type	trial_code	SM_velocity	OM_velocity	Condition_name	onset	duration	ITI_duration	7.136563	0	0	0	False
3	trial_id	trial_type	trial_code	SM_velocity	OM_velocity	Condition_name	onset	duration	ITI_duration	13.79176	0	0	0	False
4	trial_id	trial_type	trial_code	SM_velocity	OM_velocity	Condition_name	onset	duration	ITI_duration	21.20042	0	0	0	False
5	trial_id	trial_type	trial_code	SM_velocity	OM_velocity	Condition_name	onset	duration	ITI_duration	26.17631	0	0	0	False
6	trial_id	trial_type	trial_code	SM_velocity	OM_velocity	Condition_name	onset	duration	ITI_duration	34.6457	0	0	0	False
7	trial_id	trial_type	trial_code	SM_velocity	OM_velocity	Condition_name	onset	duration	ITI_duration	39.61273	0	0	0	False
8	trial_id	trial_type	trial_code	SM_velocity	OM_velocity	Condition_name	onset	duration	ITI_duration	47.98833	0	0	0	False
9	trial_id	trial_type	trial_code	SM_velocity	OM_velocity	Condition_name	onset	duration	ITI_duration	53.13699	0	0	0	False
10	trial_id	trial_type	trial_code	SM_velocity	OM_velocity	Condition_name	onset	duration	ITI_duration	57.86281	0	0	0	False
11	trial_id	trial_type	trial_code	SM_velocity	OM_velocity	Condition_name	onset	duration	ITI_duration	62.41553	0	0	0	False
12	trial_id	trial_type	trial_code	SM_velocity	OM_velocity	Condition_name	onset	duration	ITI_duration	70.06164	0	0	0	False
13	trial_id	trial_type	trial_code	SM_velocity	OM_velocity	Condition_name	onset	duration	ITI_duration	73.87723	0	0	0	False
14	trial_id	trial_type	trial_code	SM_velocity	OM_velocity	Condition_name	onset	duration	ITI_duration	80.84503	0	0	0	False
15	trial_id	trial_type	trial_code	SM_velocity	OM_velocity	Condition_name	onset	duration	ITI_duration	85.09406	0	0	0	False
16	trial_id	trial_type	trial_code	SM_velocity	OM_velocity	Condition_name	onset	duration	ITI_duration	92.69028	0	0	0	False
17	trial_id	trial_type	trial_code	SM_velocity	OM_velocity	Condition_name	onset	duration	ITI_duration	99.55139	0	0	0	False
18	trial_id	trial_type	trial_code	SM_velocity	OM_velocity	Condition_name	onset	duration	ITI_duration	105.7179	0	0	0	False
19	trial_id	trial_type	trial_code	SM_velocity	OM_velocity	Condition_name	onset	duration	ITI_duration	112.0792	0	0	0	False
20	trial_id	trial_type	trial_code	SM_velocity	OM_velocity	Condition_name	onset	duration	ITI_duration	118.5792	0	0	0	False
21	trial_id	trial_type	trial_code	SM_velocity	OM_velocity	Condition_name	onset	duration	ITI_duration	122.363	0	0	0	False
22	trial_id	trial_type	trial_code	SM_velocity	OM_velocity	Condition_name	onset	duration	ITI_duration	130.2271	0	0	0	False

Index	trial_id	trial_type	trial_code	SM_velocity	OM_velocity	Condition_name	onset	duration	ITI_duration	StartTime	ChangeTime	Response	ResponseTime	Valid
1	trial_id	trial_type	trial_code	SM_velocity	OM_velocity	Condition_name	onset	duration	ITI_duration	0.9002959	0	0	0	False
2	trial_id	trial_type	trial_code	SM_velocity	OM_velocity	Condition_name	onset	duration	ITI_duration	5.042021	0	0	0	False
3	trial_id	trial_type	trial_code	SM_velocity	OM_velocity	Condition_name	onset	duration	ITI_duration	11.74825	0	0	0	False
4	trial_id	trial_type	trial_code	SM_velocity	OM_velocity	Condition_name	onset	duration	ITI_duration	19.10135	0	0	0	False
5	trial_id	trial_type	trial_code	SM_velocity	OM_velocity	Condition_name	onset	duration	ITI_duration	24.15858	0	0	0	False
6	trial_id	trial_type	trial_code	SM_velocity	OM_velocity	Condition_name	onset	duration	ITI_duration	32.67354	0	0	0	False
7	trial_id	trial_type	trial_code	SM_velocity	OM_velocity	Condition_name	onset	duration	ITI_duration	37.67732	0	0	0	False
8	trial_id	trial_type	trial_code	SM_velocity	OM_velocity	Condition_name	onset	duration	ITI_duration	46.15543	0	0	0	False
9	trial_id	trial_type	trial_code	SM_velocity	OM_velocity	Condition_name	onset	duration	ITI_duration	51.31047	0	0	0	False
10	trial_id	trial_type	trial_code	SM_velocity	OM_velocity	Condition_name	onset	duration	ITI_duration	56.18386	0	0	0	False
11	trial_id	trial_type	trial_code	SM_velocity	OM_velocity	Condition_name	onset	duration	ITI_duration	60.66679	0	0	0	False
12	trial_id	trial_type	trial_code	SM_velocity	OM_velocity	Condition_name	onset	duration	ITI_duration	68.31343	0	0	0	False
13	trial_id	trial_type	trial_code	SM_velocity	OM_velocity	Condition_name	onset	duration	ITI_duration	72.24468	0	0	0	False
14	trial_id	trial_type	trial_code	SM_velocity	OM_velocity	Condition_name	onset	duration	ITI_duration	79.2327	0	0	0	False
15	trial_id	trial_type	trial_code	SM_velocity	OM_velocity	Condition_name	onset	duration	ITI_duration	83.50285	0	0	0	False
16	trial_id	trial_type	trial_code	SM_velocity	OM_velocity	Condition_name	onset	duration	ITI_duration	91.02259	0	0	0	False
17	trial_id	trial_type	trial_code	SM_velocity	OM_velocity	Condition_name	onset	duration	ITI_duration	97.93574	0	0	0	False
18	trial_id	trial_type	trial_code	SM_velocity	OM_velocity	Condition_name	onset	duration	ITI_duration	104.104	0	0	0	False
19	trial_id	trial_type	trial_code	SM_velocity	OM_velocity	Condition_name	onset	duration	ITI_duration	110.4304	0	0	0	False
20	trial_id	trial_type	trial_code	SM_velocity	OM_velocity	Condition_name	onset	duration	ITI_duration	117.08	0	0	0	False
21	trial_id	trial_type	trial_code	SM_velocity	OM_velocity	Condition_name	onset	duration	ITI_duration	120.919	0	0	0	False
22	trial_id	trial_type	trial_code	SM_velocity	OM_velocity	Condition_name	onset	duration	ITI_duration	128.9325	0	0	0	False
23	trial_id	trial_type	trial_code	SM_velocity	OM_velocity	Condition_name	onset	duration	ITI_duration	135.1275	0	0	0	False
24	trial_id	trial_type	trial_code	SM_velocity	OM_velocity	Condition_name	onset	duration	ITI_duration	139.3941	0	0	0	False
25	trial_id	trial_type	trial_code	SM_velocity	OM_velocity	Condition_name	onset	duration	ITI_duration	147.5975	0	0	0	False
26	trial_id	trial_type	trial_code	SM_velocity	OM_velocity	Condition_name	onset	duration	ITI_duration	152.0481	0	0	0	False
27	trial_id	trial_type	trial_code	SM_velocity	OM_velocity	Condition_name	onset	duration	ITI_duration	160.8926	0	0	0	False
28	trial_id	trial_type	trial_code	SM_velocity	OM_velocity	Condition_name	onset	duration	ITI_duration	170.6898	0	0	0	False
29	trial_id	trial_type	trial_code	SM_velocity	OM_velocity	Condition_name	onset	duration	ITI_duration	176.2256	0	0	0	False
30	trial_id	trial_type	trial_code	SM_velocity	OM_velocity	Condition_name	onset	duration	ITI_duration	183.2701	0	0	0	False
31	trial_id	trial_type	trial_code	SM_velocity	OM_velocity	Condition_name	onset	duration	ITI_duration	194.1913	0	0	0	False
32	trial_id	trial_type	trial_code	SM_velocity	OM_velocity	Condition_name	onset	duration	ITI_duration	198.0237	0	0	0	False
33	trial_id	trial_type	trial_code	SM_velocity	OM_velocity	Condition_name	onset	duration	ITI_duration	206.3919	0	0	0	False
34	trial_id	trial_type	trial_code	SM_velocity	OM_velocity	Condition_name	onset	duration	ITI_duration	215.0645	0	0	0	False
35	trial_id	trial_type	trial_code	SM_velocity	OM_velocity	Condition_name	onset	duration	ITI_duration	220.3318	0	0	0	False
36	trial_id	trial_type	trial_code	SM_velocity	OM_velocity	Condition_name	onset	duration	ITI_duration	226.3523	0	0	0	False
37	trial_id	trial_type	trial_code	SM_velocity	OM_velocity	Condition_name	onset	duration	ITI_duration	234.3033	0	0	0	False
38	trial_id	trial_type	trial_code	SM_velocity	OM_velocity	Condition_name	onset	duration	ITI_duration	238.291	0	0	0	False
39	trial_id	trial_type	trial_code	SM_velocity	OM_velocity	Condition_name	onset	duration	ITI_duration	242.195	0	0	0	False
40	trial_id	trial_type	trial_code	SM_velocity	OM_velocity	Condition_name	onset	duration	ITI_duration	246.0912	0	0	0	False
41	trial_id	trial_type	trial_code	SM_velocity	OM_velocity	Condition_name	onset	duration	ITI_duration	252.0141	0	0	0	False
42	trial_id	trial_type	trial_code	SM_velocity	OM_velocity	Condition_name	onset	duration	ITI_duration	258.8068	0	0	0	False
43	trial_id	trial_type	trial_code	SM_velocity	OM_velocity	Condition_name	onset	duration	ITI_duration	265.0708	0	0	0	False
44	trial_id	trial_type	trial_code	SM_velocity	OM_velocity	Condition_name	onset	duration	ITI_duration	269.1151	0	0	0	False
45	trial_id	trial_type	trial_code	SM_velocity	OM_velocity	Condition_name	onset	duration	ITI_duration	277.7468	0	0	0	False
46	trial_id	trial_type	trial_code	SM_velocity	OM_velocity	Condition_name	onset	duration	ITI_duration	288.4651	0	0	0	False
47	trial_id	trial_type	trial_code	SM_velocity	OM_velocity	Condition_name	onset	duration	ITI_duration	294.1747	0	0	0	False
48	trial_id	trial_type	trial_code	SM_velocity	OM_velocity	Condition_name	onset	duration	ITI_duration	298.5236	0	0	0	False
49	trial_id	trial_type	trial_code	SM_velocity	OM_velocity	Condition_name	onset	duration	ITI_duration	308.452	0	0	0	False
50	trial_id	trial_type	trial_code	SM_velocity	OM_velocity	Condition_name	onset	duration	ITI_duration	314.0903	0	0	0	False
51	trial_id	trial_type	trial_code	SM_velocity	OM_velocity	Condition_name	onset	duration	ITI_duration	322.7231	0	0	0	False

Index	trial_id	trial_type	trial_code	SM_velocity	OM_velocity	Condition_name	onset	duration	ITI_duration	StartTime	ChangeTime	Response	ResponseTime	Valid
1	trial_id	trial_type	trial_code	SM_velocity	OM_velocity	Condition_name	onset	duration	ITI_duration	2.693077	0	0	0	False
2	trial_id	trial_type	trial_code	SM_velocity	OM_velocity	Condition_name	onset	duration	ITI_duration	6.990808	0	0	0	False
3	trial_id	trial_type	trial_code	SM_velocity	OM_velocity	Condition_name	onset	duration	ITI_duration	11.32282	0	0	0	False
4	trial_id	trial_type	trial_code	SM_velocity	OM_velocity	Condition_name	onset	duration	ITI_duration	15.55354	0	0	0	False
5	trial_id	trial_type	trial_code	SM_velocity	OM_velocity	Condition_name	onset	duration	ITI_duration	19.84866	0	0	0	False
6	trial_id	trial_type	trial_code	SM_velocity	OM_velocity	Condition_name	onset	duration	ITI_duration	24.08506	0	0	0	False

Index	trial_id	trial_type	trial_code	SM_velocity	OM_velocity	Condition_name	onset	duration	ITI_duration	StartTime	ChangeTime	Response	ResponseTime	Valid
1	trial_id	trial_type	trial_code	SM_velocity	OM_velocity	Condition_name	onset	duration	ITI_duration	0.714353	0	0	0	False
2	trial_id	trial_type	trial_code	SM_velocity	OM_velocity	Condition_name	onset	duration	ITI_duration	4.97593	0	0	0	False
3	trial_id	trial_type	trial_code	SM_velocity	OM_velocity	Condition_name	onset	duration	ITI_duration	9.230786	0	0	0	False
4	trial_id	trial_type	trial_code	SM_velocity	OM_velocity	Condition_name	onset	duration	ITI_duration	13.60351	0	0	0	False
5	trial_id	trial_type	trial_code	SM_velocity	OM_velocity	Condition_name	onset	duration	ITI_duration	17.79816	0	0	0	False
6	trial_id	trial_type	trial_code	SM_velocity	OM_velocity	Condition_name	onset	duration	ITI_duration	22.01356	0	0	0	False
7	trial_id	trial_type	trial_code	SM_velocity	OM_velocity	Condition_name	onset	duration	ITI_duration	26.28566	0	0	0	False
8	trial_id	trial_type	trial_code	SM_velocity	OM_velocity	Condition_name	onset	duration	ITI_duration	30.47602	0	0	0	False
9	trial_id	trial_type	trial_code	SM_velocity	OM_velocity	Condition_name	onset	duration	ITI_duration	34.70582	0	0	0	False
10	trial_id	trial_type	trial_code	SM_velocity	OM_velocity	Condition_name	onset	duration	ITI_duration	38.96111	0	0	0	False
11	trial_id	trial_type	trial_code	SM_velocity	OM_velocity	Condition_name	onset	duration	ITI_duration	43.23238	0	0	0	False
12	trial_id	trial_type	trial_code	SM_velocity	OM_velocity	Condition_name	onset	duration	ITI_duration	47.50757	0	0	0	False
13	trial_id	trial_type	trial_code	SM_velocity	OM_velocity	Condition_name	onset	duration	ITI_duration	51.81815	0	0	0	False
14	trial_id	trial_type	trial_code	SM_velocity	OM_velocity	Condition_name	onset	duration	ITI_duration	56.00198	0	0	0	False
15	trial_id	trial_type	trial_code	SM_velocity	OM_velocity	Condition_name	onset	duration	ITI_duration	60.38595	0	0	0	False
16	trial_id	trial_type	trial_code	SM_velocity	OM_velocity	Condition_name	onset	duration	ITI_duration	64.62261	0	0	0	False
17	trial_id	trial_type	trial_code	SM_velocity	OM_velocity	Condition_name	onset	duration	ITI_duration	69.00151	0	0	0	False
18	trial_id	trial_type	trial_code	SM_velocity	OM_velocity	Condition_name	onset	duration	ITI_duration	73.21263	0	0	0	False
19	trial_id	trial_type	trial_code	SM_velocity	OM_velocity	Condition_name	onset	duration	ITI_duration	77.31464	0	0	0	False
20	trial_id	trial_type	trial_code	SM_velocity	OM_velocity	Condition_name	onset	duration	ITI_duration	81.55074	0	0	0	False
21	trial_id	trial_type	trial_code	SM_velocity	OM_velocity	Condition_name	onset	duration	ITI_duration	85.7857	0	0	0	False
22	trial_id	trial_type	trial_code	SM_velocity	OM_velocity	Condition_name	onset	duration	ITI_duration	90.01381	0	0	0	False
23	trial_id	trial_type	trial_code	SM_velocity	OM_velocity	Condition_name	onset	duration	ITI_duration	94.23533	0	0	0	False
24	trial_id	trial_type	trial_code	SM_velocity	OM_velocity	Condition_name	onset	duration	ITI_duration	98.54586	0	0	0	False
25	trial_id	trial_type	trial_code	SM_velocity	OM_velocity	Condition_name	onset	duration	ITI_duration	102.9043	0	0	0	False
26	trial_id	trial_type	trial_code	SM_velocity	OM_velocity	Condition_name	onset	duration	ITI_duration	107.281	0	0	0	False
27	trial_id	trial_type	trial_code	SM_velocity	OM_velocity	Condition_name	onset	duration	ITI_duration	111.5011	0	0	0	False
28	trial_id	trial_type	trial_code	SM_velocity	OM_velocity	Condition_name	onset	duration	ITI_duration	115.687	0	0	0	False
29	trial_id	trial_type	trial_code	SM_velocity	OM_velocity	Condition_name	onset	duration	ITI_duration	119.9188	0	0	0	False
30	trial_id	trial_type	trial_code	SM_velocity	OM_velocity	Condition_name	onset	duration	ITI_duration	124.2197	0	0	0	False
31	trial_id	trial_type	trial_code	SM_velocity	OM_velocity	Condition_name	onset	duration	ITI_duration	128.5566	0	0	0	False
32	trial_id	trial_type	trial_code	SM_velocity	OM_velocity	Condition_name	onset	duration	ITI_duration	132.9043	0	0	0	False
33	trial_id	trial_type	trial_code	SM_velocity	OM_velocity	Condition_name	onset	duration	ITI_duration	137.113	0	0	0	False
34	trial_id	trial_type	trial_code	SM_velocity	OM_velocity	Condition_name	onset	duration	ITI_duration	141.461	0	0	0	False
35	trial_id	trial_type	trial_code	SM_velocity	OM_velocity	Condition_name	onset	duration	ITI_duration	145.8219	0	0	0	False
36	trial_id	trial_type	trial_code	SM_velocity	OM_velocity	Condition_name	onset	duration	ITI_duration	150.0868	0	0	0	False
37	trial_id	trial_type	trial_code	SM_velocity	OM_velocity	Condition_name	onset	duration	ITI_duration	154.4297	0	0	0	False
38	trial_id	trial_type	trial_code	SM_velocity	OM_velocity	Condition_name	onset	duration	ITI_duration	158.7734	0	0	0	False
39	trial_id	trial_type	trial_code	SM_velocity	OM_velocity	Condition_name	onset	duration	ITI_duration	163.0071	0	0	0	False
40	trial_id	trial_type	trial_code	SM_velocity	OM_velocity	Condition_name	onset	duration	ITI_duration	167.2379	0	0	0	False
41	trial_id	trial_type	trial_code	SM_velocity	OM_velocity	Condition_name	onset	duration	ITI_duration	171.5511	0	0	0	False
42	trial_id	trial_type	trial_code	SM_velocity	OM_velocity	Condition_name	onset	duration	ITI_duration	175.7176	0	0	0	False
43	trial_id	trial_type	trial_code	SM_velocity	OM_velocity	Condition_name	onset	duration	ITI_duration	180.0354	0	0	0	False
44	trial_id	trial_type	trial_code	SM_velocity	OM_velocity	Condition_name	onset	duration	ITI_duration	184.2146	0	0	0	False
45	trial_id	trial_type	trial_code	SM_velocity	OM_velocity	Condition_name	onset	duration	ITI_duration	188.4636	0	0	0	False
46	trial_id	trial_type	trial_code	SM_velocity	OM_velocity	Condition_name	onset	duration	ITI_duration	192.6939	0	0	0	False
47	trial_id	trial_type	trial_code	SM_velocity	OM_velocity	Condition_name	onset	duration	ITI_duration	196.9741	0	0	0	False
48	trial_id	trial_type	trial_code	SM_velocity	OM_velocity	Condition_name	onset	duration	ITI_duration	201.2242	0	0	0	False

Index	trial_id	trial_type	trial_code	SM_velocity	OM_velocity	Condition_name	onset	duration	ITI_duration	StartTime	ChangeTime	Response	ResponseTime	Valid
1	trial_id	trial_type	trial_code	SM_velocity	OM_velocity	Condition_name	onset	duration	ITI_duration	0.612579	0	0	0	False
2	trial_id	trial_type	trial_code	SM_velocity	OM_velocity	Condition_name	onset	duration	ITI_duration	4.832793	0	0	0	False
3	trial_id	trial_type	trial_code	SM_velocity	OM_velocity	Condition_name	onset	duration	ITI_duration	9.119817	0	0	0	False
4	trial_id	trial_type	trial_code	SM_velocity	OM_velocity	Condition_name	onset	duration	ITI_duration	13.34704	0	0	0	False
5	trial_id	trial_type	trial_code	SM_velocity	OM_velocity	Condition_name	onset	duration	ITI_duration	17.66247	0	0	0	False
6	trial_id	trial_type	trial_code	SM_velocity	OM_velocity	Condition_name	onset	duration	ITI_duration	21.91044	0	0	0	False
7	trial_id	trial_type	trial_code	SM_velocity	OM_velocity	Condition_name	onset	duration	ITI_duration	26.18981	0	0	0	False
8	trial_id	trial_type	trial_code	SM_velocity	OM_velocity	Condition_name	onset	duration	ITI_duration	30.54062	0	0	0	False
9	trial_id	trial_type	trial_code	SM_velocity	OM_velocity	Condition_name	onset	duration	ITI_duration	34.80949	0	0	0	False
10	trial_id	trial_type	trial_code	SM_velocity	OM_velocity	Condition_name	onset	duration	ITI_duration	39.01741	0	0	0	False
11	trial_id	trial_type	trial_code	SM_velocity	OM_velocity	Condition_name	onset	duration	ITI_duration	43.39592	0	0	0	False
12	trial_id	trial_type	trial_code	SM_velocity	OM_velocity	Condition_name	onset	duration	ITI_duration	47.687	0	0	0	False
13	trial_id	trial_type	trial_code	SM_velocity	OM_velocity	Condition_name	onset	duration	ITI_duration	51.88661	0	0	0	False
14	trial_id	trial_type	trial_code	SM_velocity	OM_velocity	Condition_name	onset	duration	ITI_duration	56.14972	0	0	0	False
15	trial_id	trial_type	trial_code	SM_velocity	OM_velocity	Condition_name	onset	duration	ITI_duration	60.5037	0	0	0	False
16	trial_id	trial_type	trial_code	SM_velocity	OM_velocity	Condition_name	onset	duration	ITI_duration	64.74167	0	0	0	False
17	trial_id	trial_type	trial_code	SM_velocity	OM_velocity	Condition_name	onset	duration	ITI_duration	68.91205	0	0	0	False
18	trial_id	trial_type	trial_code	SM_velocity	OM_velocity	Condition_name	onset	duration	ITI_duration	73.2233	0	0	0	False
19	trial_id	trial_type	trial_code	SM_velocity	OM_velocity	Condition_name	onset	duration	ITI_duration	77.51135	0	0	0	False
20	trial_id	trial_type	trial_code	SM_velocity	OM_velocity	Condition_name	onset	duration	ITI_duration	81.78691	0	0	0	False
21	trial_id	trial_type	trial_code	SM_velocity	OM_velocity	Condition_name	onset	duration	ITI_duration	86.03193	0	0	0	False
22	trial_id	trial_type	trial_code	SM_velocity	OM_velocity	Condition_name	onset	duration	ITI_duration	90.3343	0	0	0	False
23	trial_id	trial_type	trial_code	SM_velocity	OM_velocity	Condition_name	onset	duration	ITI_duration	94.56696	0	0	0	False
24	trial_id	trial_type	trial_code	SM_velocity	OM_velocity	Condition_name	onset	duration	ITI_duration	98.85589	0	0	0	False
25	trial_id	trial_type	trial_code	SM_velocity	OM_velocity	Condition_name	onset	duration	ITI_duration	103.1974	0	0	0	False
26	trial_id	trial_type	trial_code	SM_velocity	OM_velocity	Condition_name	onset	duration	ITI_duration	107.5689	0	0	0	False
27	trial_id	trial_type	trial_code	SM_velocity	OM_velocity	Condition_name	onset	duration	ITI_duration	111.8641	0	0	0	False
28	trial_id	trial_type	trial_code	SM_velocity	OM_velocity	Condition_name	onset	duration	ITI_duration	116.1085	0	0	0	False
29	trial_id	trial_type	trial_code	SM_velocity	OM_velocity	Condition_name	onset	duration	ITI_duration	120.4614	0	0	0	False
30	trial_id	trial_type	trial_code	SM_velocity	OM_velocity	Condition_name	onset	duration	ITI_duration	124.6794	0	0	0	False
31	trial_id	trial_type	trial_code	SM_velocity	OM_velocity	Condition_name	onset	duration	ITI_duration	128.9695	0	0	0	False
32	trial_id	trial_type	trial_code	SM_velocity	OM_velocity	Condition_name	onset	duration	ITI_duration	133.197	0	0	0	False
33	trial_id	trial_type	trial_code	SM_velocity	OM_velocity	Condition_name	onset	duration	ITI_duration	137.5302	0	0	0	False
34	trial_id	trial_type	trial_code	SM_velocity	OM_velocity	Condition_name	onset	duration	ITI_duration	141.8118	0	0	0	False
35	trial_id	trial_type	trial_code	SM_velocity	OM_velocity	Condition_name	onset	duration	ITI_duration	146.1036	0	0	0	False
36	trial_id	trial_type	trial_code	SM_velocity	OM_velocity	Condition_name	onset	duration	ITI_duration	150.4317	0	0	0	False
37	trial_id	trial_type	trial_code	SM_velocity	OM_velocity	Condition_name	onset	duration	ITI_duration	154.8265	0	0	0	False
38	trial_id	trial_type	trial_code	SM_velocity	OM_velocity	Condition_name	onset	duration	ITI_duration	159.1227	0	0	0	False
39	trial_id	trial_type	trial_code	SM_velocity	OM_velocity	Condition_name	onset	duration	ITI_duration	163.4138	0	0	0	False
40	trial_id	trial_type	trial_code	SM_velocity	OM_velocity	Condition_name	onset	duration	ITI_duration	167.7205	0	0	0	False
41	trial_id	trial_type	trial_code	SM_velocity	OM_velocity	Condition_name	onset	duration	ITI_duration	172.0543	0	0	0	False
42	trial_id	trial_type	trial_code	SM_velocity	OM_velocity	Condition_name	onset	duration	ITI_duration	176.3472	0	0	0	False
43	trial_id	trial_type	trial_code	SM_velocity	OM_velocity	Condition_name	onset	duration	ITI_duration	180.6762	0	0	0	False
44	trial_id	trial_type	trial_code	SM_velocity	OM_velocity	Condition_name	onset	duration	ITI_duration	184.987	0	0	0	False
45	trial_id	trial_type	trial_code	SM_velocity	OM_velocity	Condition_name	onset	duration	ITI_duration	189.2834	0	0	0	False
46	trial_id	trial_type	trial_code	SM_velocity	OM_velocity	Condition_name	onset	duration	ITI_duration	193.6083	0	0	0	False
47	trial_id	trial_type	trial_code	SM_velocity	OM_velocity	Condition_name	onset	duration	ITI_duration	197.8007	0	0	0	False
48	trial_id	trial_type	trial_code	SM_velocity	OM_velocity	Condition_name	onset	duration	ITI_duration	202.0604	0	0	0	False
49	trial_id	trial_type	trial_code	SM_velocity	OM_velocity	Condition_name	onset	duration	ITI_duration	206.2635	0	0	0	False
50	trial_id	trial_type	trial_code	SM_velocity	OM_velocity	Condition_name	onset	duration	ITI_duration	210.4635	0	0	0	False
51	trial_id	trial_type	trial_code	SM_velocity	OM_velocity	Condition_name	onset	duration	ITI_duration	214.7039	0	0	0	False
52	trial_id	trial_type	trial_code	SM_velocity	OM_velocity	Condition_name	onset	duration	ITI_duration	218.9918	0	0	0	False

Index	trial_id	trial_type	trial_code	SM_velocity	OM_velocity	Condition_name	onset	duration	ITI_duration	StartTime	ChangeTime	Response	ResponseTime	Valid
1	trial_id	trial_type	trial_code	SM_velocity	OM_velocity	Condition_name	onset	duration	ITI_duration	4.425907	0	0	0	False
2	trial_id	trial_type	trial_code	SM_velocity	OM_velocity	Condition_name	onset	duration	ITI_duration	8.649212	0	0	0	False
3	trial_id	trial_type	trial_code	SM_velocity	OM_velocity	Condition_name	onset	duration	ITI_duration	12.87562	0	0	0	False
4	trial_id	trial_type	trial_code	SM_velocity	OM_velocity	Condition_name	onset	duration	ITI_duration	17.17127	0	0	0	False

Index	trial_id	trial_type	trial_code	SM_velocity	OM_velocity	Condition_name	onset	duration	ITI_duration	StartTime	ChangeTime	Response	ResponseTime	Valid
1	trial_id	trial_type	trial_code	SM_velocity	OM_velocity	Condition_name	onset	duration	ITI_duration	0.22	0	0	0	False
2	trial_id	trial_type	trial_code	SM_velocity	OM_velocity	Condition_name	onset	duration	ITI_duration	4.580716	0	0	0	False
3	trial_id	trial_type	trial_code	SM_velocity	OM_velocity	Condition_name	onset	duration	ITI_duration	8.862946	0	0	0	False
4	trial_id	trial_type	trial_code	SM_velocity	OM_velocity	Condition_name	onset	duration	ITI_duration	13.21169	0	0	0	False
5	trial_id	trial_type	trial_code	SM_velocity	OM_velocity	Condition_name	onset	duration	ITI_duration	17.44393	0	0	0	False
6	trial_id	trial_type	trial_code	SM_velocity	OM_velocity	Condition_name	onset	duration	ITI_duration	21.63763	0	0	0	False
7	trial_id	trial_type	trial_code	SM_velocity	OM_velocity	Condition_name	onset	duration	ITI_duration	25.88623	0	0	0	False
8	trial_id	trial_type	trial_code	SM_velocity	OM_velocity	Condition_name	onset	duration	ITI_duration	30.12361	0	0	0	False
9	trial_id	trial_type	trial_code	SM_velocity	OM_velocity	Condition_name	onset	duration	ITI_duration	34.43985	0	0	0	False
10	trial_id	trial_type	trial_code	SM_velocity	OM_velocity	Condition_name	onset	duration	ITI_duration	38.65396	0	0	0	False
11	trial_id	trial_type	trial_code	SM_velocity	OM_velocity	Condition_name	onset	duration	ITI_duration	42.98681	0	0	0	False
12	trial_id	trial_type	trial_code	SM_velocity	OM_velocity	Condition_name	onset	duration	ITI_duration	47.31158	0	0	0	False
13	trial_id	trial_type	trial_code	SM_velocity	OM_velocity	Condition_name	onset	duration	ITI_duration	51.66073	0	0	0	False
14	trial_id	trial_type	trial_code	SM_velocity	OM_velocity	Condition_name	onset	duration	ITI_duration	55.93264	0	0	0	False
15	trial_id	trial_type	trial_code	SM_velocity	OM_velocity	Condition_name	onset	duration	ITI_duration	60.2211	0	0	0	False
16	trial_id	trial_type	trial_code	SM_velocity	OM_velocity	Condition_name	onset	duration	ITI_duration	64.53407	0	4	66.76037	True
17	trial_id	trial_type	trial_code	SM_velocity	OM_velocity	Condition_name	onset	duration	ITI_duration	67.8597	0	0	0	False
18	trial_id	trial_type	trial_code	SM_velocity	OM_velocity	Condition_name	onset	duration	ITI_duration	72.15329	0	0	0	False
19	trial_id	trial_type	trial_code	SM_velocity	OM_velocity	Condition_name	onset	duration	ITI_duration	76.39445	0	0	0	False
20	trial_id	trial_type	trial_code	SM_velocity	OM_velocity	Condition_name	onset	duration	ITI_duration	80.6002	0	0	0	False
21	trial_id	trial_type	trial_code	SM_velocity	OM_velocity	Condition_name	onset	duration	ITI_duration	84.88246	0	0	0	False
22	trial_id	trial_type	trial_code	SM_velocity	OM_velocity	Condition_name	onset	duration	ITI_duration	89.02657	0	0	0	False

Index	trial_id	trial_type	trial_code	SM_velocity	OM_velocity	Condition_name	onset	duration	ITI_duration	StartTime	ChangeTime	Response	ResponseTime	Valid
1	trial_id	trial_type	trial_code	SM_velocity	OM_velocity	Condition_name	onset	duration	ITI_duration	0.6691499	0	0	0	False
2	trial_id	trial_type	trial_code	SM_velocity	OM_velocity	Condition_name	onset	duration	ITI_duration	4.857524	0	0	0	False
3	trial_id	trial_type	trial_code	SM_velocity	OM_velocity	Condition_name	onset	duration	ITI_duration	9.066208	0	0	0	False
4	trial_id	trial_type	trial_code	SM_velocity	OM_velocity	Condition_name	onset	duration	ITI_duration	13.3151	0	0	0	False
5	trial_id	trial_type	trial_code	SM_velocity	OM_velocity	Condition_name	onset	duration	ITI_duration	17.59391	0	0	0	False
6	trial_id	trial_type	trial_code	SM_velocity	OM_velocity	Condition_name	onset	duration	ITI_duration	21.93206	0	0	0	False
7	trial_id	trial_type	trial_code	SM_velocity	OM_velocity	Condition_name	onset	duration	ITI_duration	26.29375	0	0	0	False
8	trial_id	trial_type	trial_code	SM_velocity	OM_velocity	Condition_name	onset	duration	ITI_duration	30.58317	0	0	0	False
9	trial_id	trial_type	trial_code	SM_velocity	OM_velocity	Condition_name	onset	duration	ITI_duration	34.95048	0	0	0	False
10	trial_id	trial_type	trial_code	SM_velocity	OM_velocity	Condition_name	onset	duration	ITI_duration	39.1805	0	0	0	False
11	trial_id	trial_type	trial_code	SM_velocity	OM_velocity	Condition_name	onset	duration	ITI_duration	43.50047	0	0	0	False
12	trial_id	trial_type	trial_code	SM_velocity	OM_velocity	Condition_name	onset	duration	ITI_duration	47.88085	0	0	0	False
13	trial_id	trial_type	trial_code	SM_velocity	OM_velocity	Condition_name	onset	duration	ITI_duration	52.23492	0	0	0	False
14	trial_id	trial_type	trial_code	SM_velocity	OM_velocity	Condition_name	onset	duration	ITI_duration	56.42925	0	0	0	False
15	trial_id	trial_type	trial_code	SM_velocity	OM_velocity	Condition_name	onset	duration	ITI_duration	60.73936	0	0	0	False
16	trial_id	trial_type	trial_code	SM_velocity	OM_velocity	Condition_name	onset	duration	ITI_duration	65.061	0	0	0	False
17	trial_id	trial_type	trial_code	SM_velocity	OM_velocity	Condition_name	onset	duration	ITI_duration	69.30621	0	0	0	False
18	trial_id	trial_type	trial_code	SM_velocity	OM_velocity	Condition_name	onset	duration	ITI_duration	73.52337	0	0	0	False
19	trial_id	trial_type	trial_code	SM_velocity	OM_velocity	Condition_name	onset	duration	ITI_duration	77.82976	0	0	0	False
20	trial_id	trial_type	trial_code	SM_velocity	OM_velocity	Condition_name	onset	duration	ITI_duration	82.18336	0	0	0	False
21	trial_id	trial_type	trial_code	SM_velocity	OM_velocity	Condition_name	onset	duration	ITI_duration	86.48873	0	0	0	False

Index	trial_id	trial_type	trial_code	SM_velocity	OM_velocity	Condition_name	onset	duration	ITI_duration	StartTime	ChangeTime	Response	ResponseTime	Valid
1	trial_id	trial_type	trial_code	SM_velocity	OM_velocity	Condition_name	onset	duration	ITI_duration	5.13079	0	0	0	False

Index	trial_id	trial_type	trial_code	SM_velocity	OM_velocity	Condition_name	onset	duration	ITI_duration	StartTime	ChangeTime	Response	ResponseTime	Valid
1	trial_id	trial_type	trial_code	SM_velocity	OM_velocity	Condition_name	onset	duration	ITI_duration	0.825782	0	0	0	False
2	trial_id	trial_type	trial_code	SM_velocity	OM_velocity	Condition_name	onset	duration	ITI_duration	5.06106	0	0	0	False
3	trial_id	trial_type	trial_code	SM_velocity	OM_velocity	Condition_name	onset	duration	ITI_duration	9.268247	0	0	0	False
4	trial_id	trial_type	trial_code	SM_velocity	OM_velocity	Condition_name	onset	duration	ITI_duration	13.48725	0	0	0	False
5	trial_id	trial_type	trial_code	SM_velocity	OM_velocity	Condition_name	onset	duration	ITI_duration	17.75456	0	0	0	False
6	trial_id	trial_type	trial_code	SM_velocity	OM_velocity	Condition_name	onset	duration	ITI_duration	22.05519	0	0	0	False
7	trial_id	trial_type	trial_code	SM_velocity	OM_velocity	Condition_name	onset	duration	ITI_duration	26.41833	0	0	0	False
8	trial_id	trial_type	trial_code	SM_velocity	OM_velocity	Condition_name	onset	duration	ITI_duration	30.65795	0	0	0	False
9	trial_id	trial_type	trial_code	SM_velocity	OM_velocity	Condition_name	onset	duration	ITI_duration	34.91428	0	0	0	False
10	trial_id	trial_type	trial_code	SM_velocity	OM_velocity	Condition_name	onset	duration	ITI_duration	39.1285	0	0	0	False
11	trial_id	trial_type	trial_code	SM_velocity	OM_velocity	Condition_name	onset	duration	ITI_duration	43.42031	0	0	0	False
12	trial_id	trial_type	trial_code	SM_velocity	OM_velocity	Condition_name	onset	duration	ITI_duration	47.71149	0	0	0	False
13	trial_id	trial_type	trial_code	SM_velocity	OM_velocity	Condition_name	onset	duration	ITI_duration	52.01512	0	0	0	False
14	trial_id	trial_type	trial_code	SM_velocity	OM_velocity	Condition_name	onset	duration	ITI_duration	56.2786	0	0	0	False
15	trial_id	trial_type	trial_code	SM_velocity	OM_velocity	Condition_name	onset	duration	ITI_duration	60.4935	0	0	0	False
16	trial_id	trial_type	trial_code	SM_velocity	OM_velocity	Condition_name	onset	duration	ITI_duration	64.81332	0	0	0	False
17	trial_id	trial_type	trial_code	SM_velocity	OM_velocity	Condition_name	onset	duration	ITI_duration	69.0581	0	0	0	False
18	trial_id	trial_type	trial_code	SM_velocity	OM_velocity	Condition_name	onset	duration	ITI_duration	73.37672	0	0	0	False
19	trial_id	trial_type	trial_code	SM_velocity	OM_velocity	Condition_name	onset	duration	ITI_duration	77.68275	0	0	0	False
20	trial_id	trial_type	trial_code	SM_velocity	OM_velocity	Condition_name	onset	duration	ITI_duration	82.06873	0	0	0	False
21	trial_id	trial_type	trial_code	SM_velocity	OM_velocity	Condition_name	onset	duration	ITI_duration	86.36321	0	0	0	False

Index	trial_id	trial_type	trial_code	SM_velocity	OM_velocity	Condition_name	onset	duration	ITI_duration	StartTime	ChangeTime	Response	ResponseTime	Valid
1	trial_id	trial_type	trial_code	SM_velocity	OM_velocity	Condition_name	onset	duration	ITI_duration	0.7270709	0	0	0	False
2	trial_id	trial_type	trial_code	SM_velocity	OM_velocity	Condition_name	onset	duration	ITI_duration	5.106992	0	0	0	False
3	trial_id	trial_type	trial_code	SM_velocity	OM_velocity	Condition_name	onset	duration	ITI_duration	9.483081	0	4	11.44761	True
4	trial_id	trial_type	trial_code	SM_velocity	OM_velocity	Condition_name	onset	duration	ITI_duration	12.77764	0	0	0	False
5	trial_id	trial_type	trial_code	SM_velocity	OM_velocity	Condition_name	onset	duration	ITI_duration	17.06331	0	4	19.93736	True
6	trial_id	trial_type	trial_code	SM_velocity	OM_velocity	Condition_name	onset	duration	ITI_duration	20.42848	0	0	0	False
7	trial_id	trial_type	trial_code	SM_velocity	OM_velocity	Condition_name	onset	duration	ITI_duration	24.73872	0	0	0	False
8	trial_id	trial_type	trial_code	SM_velocity	OM_velocity	Condition_name	onset	duration	ITI_duration	29.05753	0	0	0	False
9	trial_id	trial_type	trial_code	SM_velocity	OM_velocity	Condition_name	onset	duration	ITI_duration	33.40838	0	0	0	False
10	trial_id	trial_type	trial_code	SM_velocity	OM_velocity	Condition_name	onset	duration	ITI_duration	37.66672	0	0	0	False
11	trial_id	trial_type	trial_code	SM_velocity	OM_velocity	Condition_name	onset	duration	ITI_duration	41.97488	0	0	0	False
12	trial_id	trial_type	trial_code	SM_velocity	OM_velocity	Condition_name	onset	duration	ITI_duration	46.35978	0	0	0	False
13	trial_id	trial_type	trial_code	SM_velocity	OM_velocity	Condition_name	onset	duration	ITI_duration	50.68277	0	0	0	False
14	trial_id	trial_type	trial_code	SM_velocity	OM_velocity	Condition_name	onset	duration	ITI_duration	55.00462	0	0	0	False
15	trial_id	trial_type	trial_code	SM_velocity	OM_velocity	Condition_name	onset	duration	ITI_duration	59.33483	0	0	0	False
16	trial_id	trial_type	trial_code	SM_velocity	OM_velocity	Condition_name	onset	duration	ITI_duration	63.72959	0	0	0	False
17	trial_id	trial_type	trial_code	SM_velocity	OM_velocity	Condition_name	onset	duration	ITI_duration	68.06091	0	0	0	False
18	trial_id	trial_type	trial_code	SM_velocity	OM_velocity	Condition_name	onset	duration	ITI_duration	72.38669	0	4	76.37618	True
19	trial_id	trial_type	trial_code	SM_velocity	OM_velocity	Condition_name	onset	duration	ITI_duration	76.47618	0	0	0	False
20	trial_id	trial_type	trial_code	SM_velocity	OM_velocity	Condition_name	onset	duration	ITI_duration	80.81781	0	0	0	False
21	trial_id	trial_type	trial_code	SM_velocity	OM_velocity	Condition_name	onset	duration	ITI_duration	85.14446	0	4	89.01861	True
22	trial_id	trial_type	trial_code	SM_velocity	OM_velocity	Condition_name	onset	duration	ITI_duration	89.21128	0	0	0	False
23	trial_id	trial_type	trial_code	SM_velocity	OM_velocity	Condition_name	onset	duration	ITI_duration	93.6001	0	4	96.47503	True
24	trial_id	trial_type	trial_code	SM_velocity	OM_velocity	Condition_name	onset	duration	ITI_duration	96.96997	0	0	0	False
25	trial_id	trial_type	trial_code	SM_velocity	OM_velocity	Condition_name	onset	duration	ITI_duration	101.3021	0	0	0	False
26	trial_id	trial_type	trial_code	SM_velocity	OM_velocity	Condition_name	onset	duration	ITI_duration	105.5887	0	4	105.6887	True
27	trial_id	trial_type	trial_code	SM_velocity	OM_velocity	Condition_name	onset	duration	ITI_duration	108.9188	0	0	0	False
28	trial_id	trial_type	trial_code	SM_velocity	OM_velocity	Condition_name	onset	duration	ITI_duration	113.1759	0	4	113.9474	True
29	trial_id	trial_type	trial_code	SM_velocity	OM_velocity	Condition_name	onset	duration	ITI_duration	116.473	0	4	120.0472	True
30	trial_id	trial_type	trial_code	SM_velocity	OM_velocity	Condition_name	onset	duration	ITI_duration	120.1473	0	0	0	False
31	trial_id	trial_type	trial_code	SM_velocity	OM_velocity	Condition_name	onset	duration	ITI_duration	124.4626	0	0	0	False

Index	trial_id	trial_type	trial_code	SM_velocity	OM_velocity	Condition_name	onset	duration	ITI_duration	StartTime	ChangeTime	Response	ResponseTime	Valid
1	trial_id	trial_type	trial_code	SM_velocity	OM_velocity	Condition_name	onset	duration	ITI_duration	1.750028	0	0	0	False
2	trial_id	trial_type	trial_code	SM_velocity	OM_velocity	Condition_name	onset	duration	ITI_duration	6.027609	0	0	0	False
3	trial_id	trial_type	trial_code	SM_velocity	OM_velocity	Condition_name	onset	duration	ITI_duration	10.37052	0	0	0	False
4	trial_id	trial_type	trial_code	SM_velocity	OM_velocity	Condition_name	onset	duration	ITI_duration	14.738	0	0	0	False

Index	trial_id	trial_type	trial_code	SM_velocity	OM_velocity	Condition_name	onset	duration	ITI_duration	StartTime	ChangeTime	Response	ResponseTime	Valid
1	trial_id	trial_type	trial_code	SM_velocity	OM_velocity	Condition_name	onset	duration	ITI_duration	0.7013991	0	0	0	False
2	trial_id	trial_type	trial_code	SM_velocity	OM_velocity	Condition_name	onset	duration	ITI_duration	4.982801	0	0	0	False
3	trial_id	trial_type	trial_code	SM_velocity	OM_velocity	Condition_name	onset	duration	ITI_duration	9.258874	0	0	0	False
4	trial_id	trial_type	trial_code	SM_velocity	OM_velocity	Condition_name	onset	duration	ITI_duration	13.49333	0	0	0	False

Index	trial_id	trial_type	trial_code	SM_velocity	OM_velocity	Condition_name	onset	duration	ITI_duration	StartTime	ChangeTime	Response	ResponseTime	Valid
1	trial_id	trial_type	trial_code	SM_velocity	OM_velocity	Condition_name	onset	duration	ITI_duration	1.731007	0	0	0	False
2	trial_id	trial_type	trial_code	SM_velocity	OM_velocity	Condition_name	onset	duration	ITI_duration	5.971411	0	0	0	False
3	trial_id	trial_type	trial_code	SM_velocity	OM_velocity	Condition_name	onset	duration	ITI_duration	10.26627	0	0	0	False

Index	trial_id	trial_type	trial_code	SM_velocity	OM_velocity	Condition_name	onset	duration	ITI_duration	StartTime	ChangeTime	Response	ResponseTime	Valid
1	trial_id	trial_type	trial_code	SM_velocity	OM_velocity	Condition_name	onset	duration	ITI_duration	2.886539	0	0	0	False
2	trial_id	trial_type	trial_code	SM_velocity	OM_velocity	Condition_name	onset	duration	ITI_duration	7.202443	0	0	0	False
3	trial_id	trial_type	trial_code	SM_velocity	OM_velocity	Condition_name	onset	duration	ITI_duration	11.47773	0	0	0	False
4	trial_id	trial_type	trial_code	SM_velocity	OM_velocity	Condition_name	onset	duration	ITI_duration	15.74881	0	0	0	False
5	trial_id	trial_type	trial_code	SM_velocity	OM_velocity	Condition_name	onset	duration	ITI_duration	19.99226	0	0	0	False
6	trial_id	trial_type	trial_code	SM_velocity	OM_velocity	Condition_name	onset	duration	ITI_duration	24.30607	0	0	0	False
7	trial_id	trial_type	trial_code	SM_velocity	OM_velocity	Condition_name	onset	duration	ITI_duration	28.56672	0	0	0	False
8	trial_id	trial_type	trial_code	SM_velocity	OM_velocity	Condition_name	onset	duration	ITI_duration	32.83518	0	0	0	False
9	trial_id	trial_type	trial_code	SM_velocity	OM_velocity	Condition_name	onset	duration	ITI_duration	37.14216	0	0	0	False
10	trial_id	trial_type	trial_code	SM_velocity	OM_velocity	Condition_name	onset	duration	ITI_duration	41.41059	0	0	0	False
11	trial_id	trial_type	trial_code	SM_velocity	OM_velocity	Condition_name	onset	duration	ITI_duration	45.69301	0	0	0	False
12	trial_id	trial_type	trial_code	SM_velocity	OM_velocity	Condition_name	onset	duration	ITI_duration	50.04607	0	0	0	False
13	trial_id	trial_type	trial_code	SM_velocity	OM_velocity	Condition_name	onset	duration	ITI_duration	54.33747	0	0	0	False
14	trial_id	trial_type	trial_code	SM_velocity	OM_velocity	Condition_name	onset	duration	ITI_duration	58.57969	0	0	0	False
15	trial_id	trial_type	trial_code	SM_velocity	OM_velocity	Condition_name	onset	duration	ITI_duration	62.86893	0	0	0	False
16	trial_id	trial_type	trial_code	SM_velocity	OM_velocity	Condition_name	onset	duration	ITI_duration	67.25279	0	0	0	False
17	trial_id	trial_type	trial_code	SM_velocity	OM_velocity	Condition_name	onset	duration	ITI_duration	71.53918	0	0	0	False
18	trial_id	trial_type	trial_code	SM_velocity	OM_velocity	Condition_name	onset	duration	ITI_duration	75.86962	0	0	0	False
19	trial_id	trial_type	trial_code	SM_velocity	OM_velocity	Condition_name	onset	duration	ITI_duration	80.26266	0	0	0	False
20	trial_id	trial_type	trial_code	SM_velocity	OM_velocity	Condition_name	onset	duration	ITI_duration	84.56483	0	0	0	False
21	trial_id	trial_type	trial_code	SM_velocity	OM_velocity	Condition_name	onset	duration	ITI_duration	88.85279	0	0	0	False
22	trial_id	trial_type	trial_code	SM_velocity	OM_velocity	Condition_name	onset	duration	ITI_duration	93.10646	0	0	0	False
23	trial_id	trial_type	trial_code	SM_velocity	OM_velocity	Condition_name	onset	duration	ITI_duration	97.39565	0	0	0	False
24	trial_id	trial_type	trial_code	SM_velocity	OM_velocity	Condition_name	onset	duration	ITI_duration	101.6836	0	0	0	False
25	trial_id	trial_type	trial_code	SM_velocity	OM_velocity	Condition_name	onset	duration	ITI_duration	105.9223	0	0	0	False
26	trial_id	trial_type	trial_code	SM_velocity	OM_velocity	Condition_name	onset	duration	ITI_duration	110.22	0	0	0	False
27	trial_id	trial_type	trial_code	SM_velocity	OM_velocity	Condition_name	onset	duration	ITI_duration	114.4838	0	0	0	False
28	trial_id	trial_type	trial_code	SM_velocity	OM_velocity	Condition_name	onset	duration	ITI_duration	118.723	0	0	0	False
29	trial_id	trial_type	trial_code	SM_velocity	OM_velocity	Condition_name	onset	duration	ITI_duration	122.983	0	0	0	False
30	trial_id	trial_type	trial_code	SM_velocity	OM_velocity	Condition_name	onset	duration	ITI_duration	127.277	0	0	0	False
31	trial_id	trial_type	trial_code	SM_velocity	OM_velocity	Condition_name	onset	duration	ITI_duration	131.5705	0	0	0	False
32	trial_id	trial_type	trial_code	SM_velocity	OM_velocity	Condition_name	onset	duration	ITI_duration	135.8224	0	0	0	False
33	trial_id	trial_type	trial_code	SM_velocity	OM_velocity	Condition_name	onset	duration	ITI_duration	140.0832	0	0	0	False
34	trial_id	trial_type	trial_code	SM_velocity	OM_velocity	Condition_name	onset	duration	ITI_duration	144.4039	0	0	0	False
35	trial_id	trial_type	trial_code	SM_velocity	OM_velocity	Condition_name	onset	duration	ITI_duration	148.692	0	0	0	False
36	trial_id	trial_type	trial_code	SM_velocity	OM_velocity	Condition_name	onset	duration	ITI_duration	152.993	0	0	0	False
37	trial_id	trial_type	trial_code	SM_velocity	OM_velocity	Condition_name	onset	duration	ITI_duration	157.2718	0	0	0	False

Index	trial_id	trial_type	trial_code	SM_velocity	OM_velocity	Condition_name	onset	duration	ITI_duration	StartTime	ChangeTime	Response	ResponseTime	Valid
1	trial_id	trial_type	trial_code	SM_velocity	OM_velocity	Condition_name	onset	duration	ITI_duration	1.532384	0	0	0	False
2	trial_id	trial_type	trial_code	SM_velocity	OM_velocity	Condition_name	onset	duration	ITI_duration	5.806828	0	0	0	False
3	trial_id	trial_type	trial_code	SM_velocity	OM_velocity	Condition_name	onset	duration	ITI_duration	10.09922	0	0	0	False
4	trial_id	trial_type	trial_code	SM_velocity	OM_velocity	Condition_name	onset	duration	ITI_duration	14.33377	0	0	0	False
5	trial_id	trial_type	trial_code	SM_velocity	OM_velocity	Condition_name	onset	duration	ITI_duration	18.65209	0	0	0	False
6	trial_id	trial_type	trial_code	SM_velocity	OM_velocity	Condition_name	onset	duration	ITI_duration	22.89472	0	0	0	False
7	trial_id	trial_type	trial_code	SM_velocity	OM_velocity	Condition_name	onset	duration	ITI_duration	27.16154	0	0	0	False
8	trial_id	trial_type	trial_code	SM_velocity	OM_velocity	Condition_name	onset	duration	ITI_duration	31.39708	0	0	0	False
9	trial_id	trial_type	trial_code	SM_velocity	OM_velocity	Condition_name	onset	duration	ITI_duration	35.62068	0	0	0	False
10	trial_id	trial_type	trial_code	SM_velocity	OM_velocity	Condition_name	onset	duration	ITI_duration	39.84026	0	0	0	False
11	trial_id	trial_type	trial_code	SM_velocity	OM_velocity	Condition_name	onset	duration	ITI_duration	44.05988	0	0	0	False
12	trial_id	trial_type	trial_code	SM_velocity	OM_velocity	Condition_name	onset	duration	ITI_duration	48.3363	0	0	0	False
13	trial_id	trial_type	trial_code	SM_velocity	OM_velocity	Condition_name	onset	duration	ITI_duration	52.59023	0	0	0	False
14	trial_id	trial_type	trial_code	SM_velocity	OM_velocity	Condition_name	onset	duration	ITI_duration	56.86351	0	0	0	False
15	trial_id	trial_type	trial_code	SM_velocity	OM_velocity	Condition_name	onset	duration	ITI_duration	61.16273	0	0	0	False
16	trial_id	trial_type	trial_code	SM_velocity	OM_velocity	Condition_name	onset	duration	ITI_duration	65.51875	0	0	0	False
17	trial_id	trial_type	trial_code	SM_velocity	OM_velocity	Condition_name	onset	duration	ITI_duration	69.80367	0	0	0	False
18	trial_id	trial_type	trial_code	SM_velocity	OM_velocity	Condition_name	onset	duration	ITI_duration	74.03555	0	0	0	False
19	trial_id	trial_type	trial_code	SM_velocity	OM_velocity	Condition_name	onset	duration	ITI_duration	78.34792	0	0	0	False
20	trial_id	trial_type	trial_code	SM_velocity	OM_velocity	Condition_name	onset	duration	ITI_duration	82.62766	0	0	0	False
21	trial_id	trial_type	trial_code	SM_velocity	OM_velocity	Condition_name	onset	duration	ITI_duration	86.8758	0	0	0	False
22	trial_id	trial_type	trial_code	SM_velocity	OM_velocity	Condition_name	onset	duration	ITI_duration	91.14748	0	0	0	False
23	trial_id	trial_type	trial_code	SM_velocity	OM_velocity	Condition_name	onset	duration	ITI_duration	95.51411	0	0	0	False
24	trial_id	trial_type	trial_code	SM_velocity	OM_velocity	Condition_name	onset	duration	ITI_duration	99.80311	0	0	0	False
25	trial_id	trial_type	trial_code	SM_velocity	OM_velocity	Condition_name	onset	duration	ITI_duration	104.0428	0	0	0	False
26	trial_id	trial_type	trial_code	SM_velocity	OM_velocity	Condition_name	onset	duration	ITI_duration	108.2739	0	0	0	False
27	trial_id	trial_type	trial_code	SM_velocity	OM_velocity	Condition_name	onset	duration	ITI_duration	112.585	0	0	0	False
28	trial_id	trial_type	trial_code	SM_velocity	OM_velocity	Condition_name	onset	duration	ITI_duration	116.8746	0	0	0	False
29	trial_id	trial_type	trial_code	SM_velocity	OM_velocity	Condition_name	onset	duration	ITI_duration	121.1225	0	0	0	False
30	trial_id	trial_type	trial_code	SM_velocity	OM_velocity	Condition_name	onset	duration	ITI_duration	125.4171	0	0	0	False
31	trial_id	trial_type	trial_code	SM_velocity	OM_velocity	Condition_name	onset	duration	ITI_duration	129.6488	0	0	0	False
32	trial_id	trial_type	trial_code	SM_velocity	OM_velocity	Condition_name	onset	duration	ITI_duration	133.9893	0	0	0	False
33	trial_id	trial_type	trial_code	SM_velocity	OM_velocity	Condition_name	onset	duration	ITI_duration	138.2244	0	0	0	False
34	trial_id	trial_type	trial_code	SM_velocity	OM_velocity	Condition_name	onset	duration	ITI_duration	142.5004	0	0	0	False
35	trial_id	trial_type	trial_code	SM_velocity	OM_velocity	Condition_name	onset	duration	ITI_duration	146.8117	0	0	0	False
36	trial_id	trial_type	trial_code	SM_velocity	OM_velocity	Condition_name	onset	duration	ITI_duration	151.0356	0	0	0	False
37	trial_id	trial_type	trial_code	SM_velocity	OM_velocity	Condition_name	onset	duration	ITI_duration	155.3305	0	0	0	False
38	trial_id	trial_type	trial_code	SM_velocity	OM_velocity	Condition_name	onset	duration	ITI_duration	159.6209	0	0	0	False
39	trial_id	trial_type	trial_code	SM_velocity	OM_velocity	Condition_name	onset	duration	ITI_duration	163.9111	0	0	0	False
40	trial_id	trial_type	trial_code	SM_velocity	OM_velocity	Condition_name	onset	duration	ITI_duration	168.2214	0	0	0	False
41	trial_id	trial_type	trial_code	SM_velocity	OM_velocity	Condition_name	onset	duration	ITI_duration	172.5024	0	0	0	False
42	trial_id	trial_type	trial_code	SM_velocity	OM_velocity	Condition_name	onset	duration	ITI_duration	176.7651	0	0	0	False
43	trial_id	trial_type	trial_code	SM_velocity	OM_velocity	Condition_name	onset	duration	ITI_duration	181.0701	0	0	0	False
44	trial_id	trial_type	trial_code	SM_velocity	OM_velocity	Condition_name	onset	duration	ITI_duration	185.3951	0	0	0	False
45	trial_id	trial_type	trial_code	SM_velocity	OM_velocity	Condition_name	onset	duration	ITI_duration	189.6218	0	0	0	False
46	trial_id	trial_type	trial_code	SM_velocity	OM_velocity	Condition_name	onset	duration	ITI_duration	193.8767	0	0	0	False
47	trial_id	trial_type	trial_code	SM_velocity	OM_velocity	Condition_name	onset	duration	ITI_duration	198.1158	0	0	0	False
48	trial_id	trial_type	trial_code	SM_velocity	OM_velocity	Condition_name	onset	duration	ITI_duration	202.3635	0	0	0	False
49	trial_id	trial_type	trial_code	SM_velocity	OM_velocity	Condition_name	onset	duration	ITI_duration	206.6172	0	0	0	False
50	trial_id	trial_type	trial_code	SM_velocity	OM_velocity	Condition_name	onset	duration	ITI_duration	210.8849	0	0	0	False
51	trial_id	trial_type	trial_code	SM_velocity	OM_velocity	Condition_name	onset	duration	ITI_duration	215.1433	0	0	0	False
52	trial_id	trial_type	trial_code	SM_velocity	OM_velocity	Condition_name	onset	duration	ITI_duration	219.4381	0	0	0	False

Index	trial_id	trial_type	trial_code	SM_velocity	OM_velocity	Condition_name	onset	duration	ITI_duration	StartTime	ChangeTime	Response	ResponseTime	Valid
1	trial_id	trial_type	trial_code	SM_velocity	OM_velocity	Condition_name	onset	duration	ITI_duration	4.405534	0	0	0	False

Index	trial_id	trial_type	trial_code	SM_velocity	OM_velocity	Condition_name	onset	duration	ITI_duration	StartTime	ChangeTime	Response	ResponseTime	Valid
1	trial_id	trial_type	trial_code	SM_velocity	OM_velocity	Condition_name	onset	duration	ITI_duration	0.4134399	0	0	0	False
2	trial_id	trial_type	trial_code	SM_velocity	OM_velocity	Condition_name	onset	duration	ITI_duration	4.685318	0	0	0	False
3	trial_id	trial_type	trial_code	SM_velocity	OM_velocity	Condition_name	onset	duration	ITI_duration	8.985265	0	0	0	False
4	trial_id	trial_type	trial_code	SM_velocity	OM_velocity	Condition_name	onset	duration	ITI_duration	13.24069	0	0	0	False
5	trial_id	trial_type	trial_code	SM_velocity	OM_velocity	Condition_name	onset	duration	ITI_duration	17.51462	0	0	0	False
6	trial_id	trial_type	trial_code	SM_velocity	OM_velocity	Condition_name	onset	duration	ITI_duration	21.76853	0	0	0	False
7	trial_id	trial_type	trial_code	SM_velocity	OM_velocity	Condition_name	onset	duration	ITI_duration	26.06913	0	4	29.07804	True
8	trial_id	trial_type	trial_code	SM_velocity	OM_velocity	Condition_name	onset	duration	ITI_duration	29.37672	0	4	29.57651	True
9	trial_id	trial_type	trial_code	SM_velocity	OM_velocity	Condition_name	onset	duration	ITI_duration	32.76372	0	0	0	False
10	trial_id	trial_type	trial_code	SM_velocity	OM_velocity	Condition_name	onset	duration	ITI_duration	37.13482	0	0	0	False
11	trial_id	trial_type	trial_code	SM_velocity	OM_velocity	Condition_name	onset	duration	ITI_duration	41.38759	0	0	0	False
12	trial_id	trial_type	trial_code	SM_velocity	OM_velocity	Condition_name	onset	duration	ITI_duration	45.76875	0	0	0	False
13	trial_id	trial_type	trial_code	SM_velocity	OM_velocity	Condition_name	onset	duration	ITI_duration	50.07798	0	0	0	False
14	trial_id	trial_type	trial_code	SM_velocity	OM_velocity	Condition_name	onset	duration	ITI_duration	54.3687	0	0	0	False
15	trial_id	trial_type	trial_code	SM_velocity	OM_velocity	Condition_name	onset	duration	ITI_duration	58.67757	0	0	0	False
16	trial_id	trial_type	trial_code	SM_velocity	OM_velocity	Condition_name	onset	duration	ITI_duration	63.06248	0	0	0	False
17	trial_id	trial_type	trial_code	SM_velocity	OM_velocity	Condition_name	onset	duration	ITI_duration	67.36192	0	0	0	False
18	trial_id	trial_type	trial_code	SM_velocity	OM_velocity	Condition_name	onset	duration	ITI_duration	71.60949	0	0	0	False
19	trial_id	trial_type	trial_code	SM_velocity	OM_velocity	Condition_name	onset	duration	ITI_duration	75.93793	0	0	0	False
20	trial_id	trial_type	trial_code	SM_velocity	OM_velocity	Condition_name	onset	duration	ITI_duration	80.23725	0	0	0	False
21	trial_id	trial_type	trial_code	SM_velocity	OM_velocity	Condition_name	onset	duration	ITI_duration	84.55906	0	0	0	False
22	trial_id	trial_type	trial_code	SM_velocity	OM_velocity	Condition_name	onset	duration	ITI_duration	88.86455	0	0	0	False
23	trial_id	trial_type	trial_code	SM_velocity	OM_velocity	Condition_name	onset	duration	ITI_duration	93.217	0	4	95.2728	True
24	trial_id	trial_type	trial_code	SM_velocity	OM_velocity	Condition_name	onset	duration	ITI_duration	96.59099	0	0	0	False
25	trial_id	trial_type	trial_code	SM_velocity	OM_velocity	Condition_name	onset	duration	ITI_duration	100.8717	0	4	104.1875	True
26	trial_id	trial_type	trial_code	SM_velocity	OM_velocity	Condition_name	onset	duration	ITI_duration	104.5706	0	0	0	False
27	trial_id	trial_type	trial_code	SM_velocity	OM_velocity	Condition_name	onset	duration	ITI_duration	108.8734	0	0	0	False
28	trial_id	trial_type	trial_code	SM_velocity	OM_velocity	Condition_name	onset	duration	ITI_duration	113.1554	0	0	0	False
29	trial_id	trial_type	trial_code	SM_velocity	OM_velocity	Condition_name	onset	duration	ITI_duration	117.4697	0	0	0	False
30	trial_id	trial_type	trial_code	SM_velocity	OM_velocity	Condition_name	onset	duration	ITI_duration	121.7524	0	0	0	False
31	trial_id	trial_type	trial_code	SM_velocity	OM_velocity	Condition_name	onset	duration	ITI_duration	125.9957	0	0	0	False
32	trial_id	trial_type	trial_code	SM_velocity	OM_velocity	Condition_name	onset	duration	ITI_duration	130.2977	0	0	0	False

Index	trial_id	trial_type	trial_code	SM_velocity	OM_velocity	Condition_name	onset	duration	ITI_duration	StartTime	ChangeTime	Response	ResponseTime	Valid
1	trial_id	trial_type	trial_code	SM_velocity	OM_velocity	Condition_name	onset	duration	ITI_duration	0.574819	0	0	0	False
2	trial_id	trial_type	trial_code	SM_velocity	OM_velocity	Condition_name	onset	duration	ITI_duration	4.907519	0	0	0	False
3	trial_id	trial_type	trial_code	SM_velocity	OM_velocity	Condition_name	onset	duration	ITI_duration	9.121552	0	0	0	False
4	trial_id	trial_type	trial_code	SM_velocity	OM_velocity	Condition_name	onset	duration	ITI_duration	13.36187	0	0	0	False
5	trial_id	trial_type	trial_code	SM_velocity	OM_velocity	Condition_name	onset	duration	ITI_duration	17.56381	0	0	0	False
6	trial_id	trial_type	trial_code	SM_velocity	OM_velocity	Condition_name	onset	duration	ITI_duration	21.76397	0	0	0	False
7	trial_id	trial_type	trial_code	SM_velocity	OM_velocity	Condition_name	onset	duration	ITI_duration	25.99337	0	0	0	False
8	trial_id	trial_type	trial_code	SM_velocity	OM_velocity	Condition_name	onset	duration	ITI_duration	30.28671	0	0	0	False
9	trial_id	trial_type	trial_code	SM_velocity	OM_velocity	Condition_name	onset	duration	ITI_duration	34.5465	0	0	0	False
10	trial_id	trial_type	trial_code	SM_velocity	OM_velocity	Condition_name	onset	duration	ITI_duration	38.8463	0	0	0	False
11	trial_id	trial_type	trial_code	SM_velocity	OM_velocity	Condition_name	onset	duration	ITI_duration	43.17519	0	0	0	False
12	trial_id	trial_type	trial_code	SM_velocity	OM_velocity	Condition_name	onset	duration	ITI_duration	47.42042	0	0	0	False
13	trial_id	trial_type	trial_code	SM_velocity	OM_velocity	Condition_name	onset	duration	ITI_duration	51.70557	0	0	0	False
14	trial_id	trial_type	trial_code	SM_velocity	OM_velocity	Condition_name	onset	duration	ITI_duration	55.93805	0	0	0	False
